File: AAC concrete dataset large ratio.csv
Idx_Sample,Ref.,Mixture Code in Ref,SiO2,Al2O3,Fe2O3,CaO,MgO,Na2O,K2O,SO3,TiO2,P2O5,SrO,Mn2O3,MnO,LOI,OPC (kg/m3),FA (kg/m3),GGBFS (kg/m3),SF (kg/m3),MK (kg/m3),Other SCM (kg/m3),Coarse aggregate (kg/m3),Fine aggregate (kg in 1m3 mix),Total aggregates (kg in 1m3 mix),Coarse Agg density (kg/m3),Fine Agg density (kg/m3),Total Na2SiO3 (kg in 1m3 of mix),Na2O (l),SiO2 (l),H2O,Total NaOH (kg in 1m3 mix),Concentration (M) NaOH,AL/B,SH/SS,Ms,Ag/B,W/B,Additional water (kg in 1m3 mix),Sp/B,Superplasticizer (kg in 1m3 mix),Total water (in solutions + additional) (kg in 1m3 mix),Initial curing time (day),Initial curing temp (C),Initial curing rest time (day),Final curing temp (C),7d CS,28d CS,1-d Cubic compressive strength (MPa),3-d Cubic compressive strength (MPa),7-d Cubic compressive strength (MPa),14-d Cubic compressive strength (MPa) ,21-d Cubic compressive strength (MPa),28-d Cubic compressive strength (MPa),56-d Cubic compressive strength (MPa),90-d Cubic compressive strength (MPa) ,180-d Cubic compressive strength (MPa),365-d Cubic compressive strength (MPa) ,1-d Cylindrical compressive strength (MPa),2-d Cylindrical compressive strength (MPa),3-d Cylindrical compressive strength (MPa),4-d Cylindrical compressive strength (MPa),5-d Cylindrical compressive strength (MPa),7-d Cylindrical compressive strength (MPa),12-d Cylindrical compressive strength (MPa),14-d Cylindrical compressive strength (MPa),21-d Cylindrical compressive strength (MPa),28-d Cylindrical compressive strength (MPa),56-d Cylindrical compressive strength (MPa) ,90-d Cylindrical compressive strength (MPa),180-d Cylindrical compressive strength (MPa) ,365-d Cylindrical compressive strength (MPa),Slump (mm),flowtable,"CO2 footprint
(kg emision per 1m3 of samples produced and cured)
[108] and [109] used"
1,[2],FA-I,53.36,26.49,10.86,1.34,0.77,0.37,0.8,1.7,1.47,1.43,0,0,,1.39,,476,,,,,1294,554,1848,,,48,14.70%,29.40%,56%,120,8,0.352941,2.5,2.0,3.9,0.2,0,0,0,108.432,1,60,0,24,13.6, ,,,,,,,,,,,,,,,,17,,,,,,,,,,,124.049
10,[2],FA-I,53.36,26.49,10.86,1.34,0.77,0.37,0.8,1.7,1.47,1.43,0,0,,1.39,,476,,,,,1294,554,1848,,,120,14.70%,29.40%,56%,48,14,0.352941,0.4,2.0,3.9,0.2,0,0,0,88.2,0.166667,60,0,24,20,,,,,,,,,,,,,,,,,25,,,,,,,,,,,109.193
19,[2],FA-II,47.8,24.4,17.4,2.42,1.99,0.31,0.55,0.29,1.328,2,0,0,,1.1,,408,,,,,1201,647,1848,,,103,14.70%,29.40%,56%,41,12,0.352941,0.398058,2.0,4.5,0.2,14.3,0.01495098,6.1,96.857,1,60,0,24,32,,,,,,,,,,,,,,,,,40,,,,,,,,,209,,119.196
28,[2],FA-II,47.8,24.4,17.4,2.42,1.99,0.31,0.55,0.29,1.328,2,0,0,,1.1,,408,,,,,1201,647,1848,,,103,14.70%,29.40%,56%,41,14,0.352941,0.398058,2.0,4.5,0.2,17.6,0.01495098,6.1,96.877,1,60,4,24,45.6,,,,,,,,,,,,,,,,,57,,,,,,,,,215,,125.477
37,[2],FA-II,47.8,24.4,17.4,2.42,1.99,0.31,0.55,0.29,1.328,2,0,0,,1.1,,408,,,,,1201,647,1848,,,103,14.70%,29.40%,56%,41,8,0.352941,0.398058,2.0,4.5,0.2,0,0.01495098,6.1,89.117,1,60,1,24,59.2,,,,,,,,,,,,,,,,,74,,,,,,,,,60,,106.634
46,[2],FA-I,53.36,26.49,10.86,1.34,0.77,0.37,0.8,1.7,1.47,1.43,0,0,,1.39,,408,,,,,1294,554,1848,,,103,14.70%,29.40%,56%,41,14,0.352941,0.398058,2.0,4.5,0.2,0,0.020098,8.2,80.537,1,90,0,24,56.8,,,,,,,,,,,,,,,,,71,,,,,,,,,,,148.675
55,[2],FA-I,53.36,26.49,10.86,1.34,0.77,0.37,0.8,1.7,1.47,1.43,0,0,,1.39,,408,,,,,1294,554,1848,,,103,14.70%,29.40%,56%,41,14,0.352941,0.398058,2.0,4.5,0.2,21.3,0.020098,8.2,101.837,1,90,0,24,35.2,,,,,,,,,,,,,,,,,44,,,,,,,,,,,148.675
64,[2],FA-II,47.8,24.4,17.4,2.42,1.99,0.31,0.55,0.29,1.328,2,0,0,,1.1,,408,,,,,1201,647,1848,,,103,14.70%,29.40%,56%,41,16,0.352941,0.398058,2.0,4.5,0.3,26.5,0.01495098,6.1,102.497,1,60,0,24,37.6,,,,,,,,,,,,,,,,,47,,,,,,,,,240,,131.758
75,[2],FA-II,47.8,24.4,17.4,2.42,1.99,0.31,0.55,0.29,1.328,2,0,0,,1.1,,408,,,,,1201,647,1848,,,103,14.70%,29.40%,56%,41,16,0.352941,0.398058,2.0,4.5,0.2,18.5,0.01495098,6.1,94.497,1,90,3,24,,,,,,,,,,,,,,,,,,,,84,,,,,,,,,151.008
84,[2],FA-II,47.8,24.4,17.4,2.42,1.99,0.31,0.55,0.29,1.328,2,0,0,,1.1,,408,,,,,1309,561,1870,,,88,14.70%,29.40%,56%,35,14,0.301471,0.397727,2.0,4.6,0.2,0.0,0.020098,8.2,90.212,1,90,0,24,,26.4,,,,,,,,,,,,,,,,,,,,33,,,,,,,136.946
93,[2],FA-II,47.8,24.4,17.4,2.42,1.99,0.31,0.55,0.29,1.328,2,0,0,,1.1,,408,,,,,1309,561,1870,,,103,14.70%,29.40%,56%,51,14,0.377451,0.495146,2.0,4.6,0.3,0.0,0.01495098,6.1,104.377,1,60,0,24,,,,,,,,,,,,,15,,,,,,,,,,,,,,,,136.307
102,[2],FA-II,47.8,24.4,17.4,2.42,1.99,0.31,0.55,0.29,1.328,2,0,0,,1.1,,476,,,,,1294,554,1848,,,120,14.70%,29.40%,56%,48,8,0.352941,0.4,2.0,3.9,0.2,0.0,0,0,99.72,0.5,60,0,24,32.8,,,,,,,,,,,,,,,,,41,,,,,,,,,,,94.618
111,[2],FA-II,47.8,24.4,17.4,2.42,1.99,0.31,0.55,0.29,1.328,2,0,0,,1.1,,476,,,,,1294,554,1848,,,120,14.70%,29.40%,56%,48,8,0.352941,0.4,2.0,3.9,0.2,0.0,0.030042,14.3,108.3,1,60,0,24,36.8,,,,,,,,,,,,,,,,,46,,,,,,,,,,,132.731
120,[2],FA-II,47.8,24.4,17.4,2.42,1.99,0.31,0.55,0.29,1.328,2,0,0,,1.1,,476,,,,,1294,554,1848,,,120,14.70%,29.40%,56%,48,8,0.352941,0.4,2.0,3.9,0.2,0.0,0.0128151,6.1,103.38,1,60,0,24,50.4,,,,,,,,,,,,,,,,,63,,,,,,,,,,,117.315
129,[3],Batch,53.09,24.8,8.01,2.44,1.94,0.73,3.78,0.23,0,0,0,0,,3.59,,465,,,,,1036.99,823.009,1860,,,38.3625,8.20%,27.80%,64%,217.3875,12.5,0.55,5.66667,3.4,4.0,0.3,0.0,0,0,133.246,0.833333,85,,24,,43.5,,,,,,43.5,,,,,,,,,,,,,,,,,,,,,264.83
138,[5],GP6,50.3,26.3,13.6,2.27,1.44,0.36,0.55,0.32,0,1.58,0,0,,0.6,,424,,,,,1201,647,1848,,,91,14.73%,29.75%,56%,36,14,0.299528,0.395604,2.0,4.4,0.2,0.0,0.0143868,6.1,68.9128,1,60,,24,25.96,28.904,,,,,,,,,,,,,,,,32.45,,,,36.13,,,,,240,,115.859
147,[7],,61.18,25,6.47,1.34,0,0.051,0,0,0,0,0,0,,1.63,,400,,,,,1056,704,1760,2.64,2.43,171.42,12.65%,29.93%,57%,68.57,10,0.599975,0.400012,2.4,4.4,0.4,0.0,0.015,6,143.171,1,60,0.0416667,24,25.22,27.02,,,25.22,25.63,26.19,27.02,,,,,,,,,,,,,,,,,,,160,,158.022
156,[8],P6-7,45.766,16.496,12.728,15.556,0,0,0,1.912,0,0,0,0,,0.8,,400,,,,100,746,617,1363,,,265,15.36%,33.28%,51%,106,14,0.742,0.4,2.2,2.7,0.4,0.0,0,0,182.744,,25,1,24,18.32256,19.0968,,,,,,,,,,,,,15.8065,,,22.9032,,26.7742,,23.871,21.9355,19.8387,,,,,217.2168
165,[9],,51.19,24,6.6,5.57,2.4,2.12,1.14,0.88,0.1,0,0,0,,0,,400,,,,,950,850,1800,,,143,14.26%,29.43%,56%,57,12,0.5,0.398601,2.1,4.5,0.4,0.0,0.07,28,174.9633,1,80,,24,,,,48.56,,,,,,,,,,,,,,,,,,,,,,,,,202.046
174,[10],,59.32,19.72,7.22,6.9,2.23,1.11,1.27,0.36,0,0,0,0,,0,,494,,,,,858,691,1549,,,98.8,15.00%,30.00%,55%,98.8,14,0.4,1,2.0,3.1,0.2,0.0,0.0303644,15,106.812,3,60,1,60,,,,,,,,,,,,,,,46.11,,,,,,,,,,,,,,246.507
183,[10],,39.25,21.09,4.99,23.53,4.45,1.47,0.57,0.85,0,0,0,0,,0,,494,,,,,858,691,1549,,,111.15,15.00%,30.00%,55%,111.15,14,0.45,1,2.0,3.1,0.2,0.0,0.0303644,15,119.0385,3,60,1,60,,,,,,,,,,,,,,,61.38,,,,,,,,,,,,,,264.197
192,[11],S1,51.3,30.1,4.57,8.73,0,0,1.56,1.4,0.698,1.6,0,0,,0,,400,,,,,950,850,1800,2.66,2.61,143,14.26%,29.43%,56%,57,12,0.5,0.398601,2.1,4.5,0.4,0.0,0.07,28,174.9633,1,70,,24,46.94,48.53,45.01,45.85,46.94,,,48.53,,,,,,,,,,,,,,,,,,,,,195.6294
201,[12],,51.19,24,6.6,5.57,2.4,2.12,1.14,0.88,0,0,0,0,,0,,400,,,,,950,850,1800,,,143,14.73%,29.75%,56%,57,12,0.5,0.398601,2.0,4.5,0.4,0.0,0.07,28,173.8336,1,70,,41.5,,,,45,,,,,,,,,,,,,,,,,,,,,,,,710,195.6294
218,[13],,50.5,26.57,13.77,2.13,1.54,0.45,0.77,0.41,0,0,0,0,,0,,408,,,,,1201,647,1848,2.64,2.58,103,14.70%,29.40%,55.90%,41,14,0.352941,0.398058,2.0,4.5,0.3,0.0,0.01495098,6.1,105.077,,24,,24,24.3028,27.64336,,,,,,,,,,,,,,,,30.3785,,,,34.5542,,38.2416,,,260,,103.0188
227,[14],,48.3,30.5,12.1,2.8,1.2,0.2,0.4,0.3,0,0,0,0,,1.7,,381,,,,,1294,554,1294,,,122,14.70%,29.40%,56%,49,8,0.448819,0.401639,2.0,3.4,0.3,0.0,0,0,101.518,0.75,25,,24,,55.84,,,,,,,,,,,,,,,,,,,,69.8,,,,,,,81.6824
236,[15],GBFS 20MK 3.6,35.976,21.926,1.88,33.96,2.296,0,0,0,0.4,0,0,0,,1.732,,,320,,80,,808,808,1616,,,132,13.50%,32.40%,54%,78,12.5,0.525,0.590909,2.4,4.0,0.6,0.0,0,0,234.412,,25,,24,36.52832,40.75472,,,,,,,,,,,,,,,,45.6604,,,,50.9434,,56.2264,64.9057,,,,173.0018
245,[17],M1A60R20,59.7,28.36,4.57,2.1,0.83,0.04,0,0.04,1.82,0,0,0.04,,1.06,,420.57,,,,,1273.07,318.27,1591.34,2.72,2.64,165.221,16.27%,34.64%,49%,66.0886,10,0.549992,0.4,2.1,3.8,0.3,0.0,0.0199967,8.41,125.806,1,100,,24,37.929,,,,37.929,,,,,,,,,,,,,,,,,,,,,,,,183.36
254,[17],M1A65R40,59.7,28.36,4.57,2.1,0.83,0.04,0,0.04,1.82,0,0,0.04,,1.06,,365.16,,,,,1027.67,685.46,1713.13,2.72,2.64,150.6,16.27%,34.64%,49%,60.24,10,0.577391,0.4,2.1,4.7,0.3,0.0,0.0199912,7.3,114.454,1,100,,24,42.0118,,,,42.0118,,,,,,,,,,,,,,,,,,,,,,,,171.893
263,[17],M1A75R35,59.7,28.36,4.57,2.1,0.83,0.04,0,0.04,1.82,0,0,0.04,,1.06,,254.54,,,,,1289.99,694.66,1984.65,2.72,2.64,99.9929,16.27%,34.64%,49%,39.9971,10,0.549972,0.4,2.1,7.8,0.3,0.0,0.0200361,5.1,76.1448,1,100,,24,44.8521,,,,44.8521,,,,,,,,,,,,,,,,,,,,,,,,134.893
272,[17],M3AL45W3,59.7,28.36,4.57,2.1,0.83,0.04,0,0.04,1.82,0,0,0.04,,1.06,,305.08,,,,,1203.99,648.35,1852.34,2.72,2.64,98.07,16.27%,34.64%,49%,39.22,10,0.450013,0.399918,2.1,6.1,0.2,0.0,0.0199948,6.1,75.3346,1,100,,24,41.8519,,,,41.8519,,,,,,,,,,,,,,,,,,,,,,,,135.052
281,[17],M3AL65W2,59.7,28.36,4.57,2.1,0.83,0.04,0,0.04,1.82,0,0,0.04,,1.06,,292.67,,,,,1203.99,648.35,1852.34,2.72,2.64,135.89,16.27%,34.64%,49%,49.03,10,0.631838,0.360807,2.1,6.3,0.3,0.0,0.0199884,5.85,99.6364,1,100,,24,43.7037,,,,43.7037,,,,,,,,,,,,,,,,,,,,,,,,155.662
290,[17],M2AL45S1,59.7,28.36,4.57,2.1,0.83,0.04,0,0.04,1.82,0,0,0.04,,1.06,,322.28,,,,,1203.99,648.35,1852.34,2.72,2.64,87.018,16.27%,34.64%,49%,58.012,10,0.450012,0.666667,2.1,5.7,0.3,0.0,0.0200137,6.45,81.3943,1,100,,24,33.7903,,,,33.7903,,,,,,,,,,,,,,,,,,,,,,,,146.195
299,[17],M2AL55S5,59.7,28.36,4.57,2.1,0.83,0.04,0,0.04,1.82,0,0,0.04,,1.06,,306.83,,,,,1203.99,648.35,1852.34,2.72,2.64,131.258,16.27%,34.64%,49%,37.5022,10,0.550011,0.285714,2.1,6.0,0.3,0.0,0.0200111,6.14,90.6198,1,100,,24,42.7419,,,,42.7419,,,,,,,,,,,,,,,,,,,,,,,,145.766
308,[17],M2AL35S3,59.7,28.36,4.57,2.1,0.83,0.04,0,0.04,1.82,0,0,0.04,,1.06,,325.75,,,,,1203.99,648.35,1852.34,2.72,2.64,81.4357,16.27%,34.64%,49%,32.5743,10,0.349992,0.4,2.1,5.7,0.2,0.0,0.0199847,6.51,63.4274,1,80,,24,31.6077,,,,31.6077,,,,,,,,,,,,,,,,,,,,,,,,111.993
317,[17],M2AL55S3,59.7,28.36,4.57,2.1,0.83,0.04,0,0.04,1.82,0,0,0.04,,1.06,,309.85,,,,,1203.99,648.35,1852.34,2.72,2.64,121.721,16.27%,34.64%,49%,48.6886,10,0.549976,0.4,2.1,6.0,0.3,0.0,0.0199774,6.19,92.6802,1,70,,24,40.5424,,,,40.5424,,,,,,,,,,,,,,,,,,,,,,,,131.758
326,[17],M2AL55S3,59.7,28.36,4.57,2.1,0.83,0.04,0,0.04,1.82,0,0,0.04,,1.06,,309.85,,,,,1203.99,648.35,1852.34,2.72,2.64,121.721,16.27%,34.64%,49%,48.6886,12,0.549976,0.4,2.1,6.0,0.3,0.0,0.0199774,6.19,88.7851,1,100,,24,46.9783,,,,46.9783,,,,,,,,,,,,,,,,,,,,,,,,158.467
335,[18],GBFS 4.4,54.3348,27.0945,4.4548,8.2744,0.0343,0,1.8366,1.458,0.65426,1.7616,0.1767,0,,0,,325.5,,,,24.5,1200,645,1845,,,103,14.73%,29.75%,56%,41,8,0.411429,0.398058,2.0,5.3,0.3,0.0,0,0,120.0656,,35,,24,8.66664,13.33336,,,,,,,,,,,,,8.75,,,10.8333,,,,16.6667,17.0833,,,,,,72.3628
344,[19],T3,50.5,26.57,13.77,2.13,1.54,0.45,0.77,0.41,0.1,1,0,0,,2.1,,462.86,,,,,,0,1752,,,132.24,14.70%,29.40%,56%,52.9,12,0.399991,0.40003,2.0,3.8,0.3,0.0,0.0131789,6.1,126.32,1,75,,24,39.912,39.712,,,,,,,,,,,,,,,,49.89,,,,49.64,,,,,,,150.044
363,[20],S3,51.3,30.1,4.57,8.73,0,0,1.56,1.4,0,1.6,0,0,,0,,400,,,,,950,850,1800,2.66,2.61,143,14.70%,29.40%,55.90%,57,12,0.5,0.398601,2.0,4.5,0.4,0.0,0.05,20,169.577,2,70,,29.5,46.19,48.9,44.74,45.28,46.19,,,48.9,,,,,,,,,,,,,,,,,,,,665,209.4644
369,[21],Sl. 4,52.54,26.74,11.12,1.28,0.87,0.47,0.82,1.7,1.57,1.53,0,0,,1.36,,450,,,,,1211.9,579.35,1791.25,0,0,144.68,14.70%,29.40%,56%,57.88,8,0.450133,0.400055,2.0,4.0,0.3,0.0,0,0,120.235,1,60,,24,50.02,,,,50.02,,,,,,,,,,,,,,,,,,,,,,,,120.41
373_1,[21],Sl. 8a,52.54,26.74,11.12,1.28,0.87,0.47,0.82,1.7,1.57,1.53,0,0,,1.36,,450,,,,,1211.9,579.35,1791.25,0,0,160.78,14.70%,29.40%,56%,64.31,10,0.5002,0.399988,2.0,4.0,0.3,0.0,0,0,128.462,1,60,,24,29.6,,,,,,,,,,,,,,,,,37,,,,,,,,,,,139.999
378,[22],FA 100,49.34,22.73,16.01,3.09,1.06,2.75,0,0,0,0,0,0,,3,,400,,,,,1209,651,1860,2.68,2.59,129.3,14.70%,29.40%,56%,0,12.67,0.32325,0,2.0,4.7,0.2,0.0,0,0,72.2787,,23,,24,16.32016,22.008,,,,,,,,,,,,,,,,20.4002,,,,27.51,,28.7012,,,,,77.31755
387,[22],FA 70 SG 30,45.338,19.511,11.747,14.763,2.542,2.147,0,0,0,0,0,0,,0,,280,120,,,,1209,651,1860,2.68,2.59,129.3,14.70%,29.40%,56%,0,12.67,0.32325,0,2.0,4.7,0.2,0.0,0,0,72.2787,1,40,1,24,33.1852,38.22224,,,,,,,,,,,,,,,,41.4815,,,,47.7778,,50,,,,,92.70255
396,[22],FA 30 SG 70,40.002,15.219,6.063,30.327,4.518,1.343,0,0,0,0,0,0,,0,,120,280,,,,1209,651,1860,2.68,2.59,129.3,14.70%,29.40%,56%,0,12.67,0.32325,0,2.0,4.7,0.2,0.0,0,0,72.2787,1,60,1,24,55.38464,63.07696,,,,,,,,,,,,,,,,69.2308,,,,78.8462,,82.6923,,,,,113.216
405,[23],MIX 6,57.425,23.705,3.4275,10.6975,0.7875,0.255,1.0275,0.3,0.8175,0,0,0.03,,1.095,,291,97,,,,1241,523,1764,0,0,49.6,14.34%,32.23%,53%,24.8,3,0.191753,0.5,2.2,4.5,0.1,0.0,0,0,48.32528,,25,,24,,42,,,,,,42,,,,,,,,,,,,,,,,,,,,,38.23024
414,[25],M3,51.3,30.1,4.57,8.73,0,0,1.56,1.4,0.7,1.6,0,0,,0,,360,,,,,950,850,1800,2.66,2.61,143,14.36%,29.43%,56%,57,10,0.555556,0.398601,2.0,5.0,0.5,48,0.0666667,24,176.9803,2,70,,24,49.44,51.52,47.83,48.52,49.44,,,51.52,,,,,,,,,,,,,,,,,,,,665,208.092
423,[27],w-0.35,77.1,17.71,1.21,0.62,0.9,0.8,0,2.2,0,0,0,0,,0,,334,,,,,1215.47,574.34,1789.81,,,58.45,16.37%,34.35%,49%,58.45,13,0.35,1,2.1,5.4,0.4,86.24,0,0,143.1,0.333333,90,2,24,35.33,,,,35.33,,,,,,,,,,,,,,,,,,,,,,205,,103.076
432,[30],A1,50.67,18.96,6.35,14.14,3.12,0.345,0.345,0.74,0,0,0,0,,0,,408.472,,,,,1041.2,800.925,1842.13,2.6,2.6,104.12,10.60%,26.50%,62.90%,41.6481,14,0.356863,0.4,2.5,4.5,0.3,16.0185,0.0156863,6.4074,103.68,1,46.1111,0,24,30.006,,,,,,,,,,,,23.3732,,30.8885,,,37.5075,,,,,,,,,,,118.215
441,[30],A10,50.67,18.96,6.35,14.14,3.12,0.345,0.345,0.74,0,0,0,0,,0,,466.138,,,,,1478.99,633.211,2112.2,2.6,2.6,118.5369,10.60%,26.50%,62.90%,47.2546,14,0.35567,0.398649,2.5,4.5,0.2,7.849065,0.0151203,7.04814,107.43,1,55,0,24,16.1062,,,,,,,,,,,,12.5485,,17.099,,,20.1327,,,,,,,,,,,137.853
450,[30],B8,56.59,23.89,4.82,9.42,1.83,0.24,1.03,0.39,0,0,0,0,,0,,466.138,,,,,1479.31,632.731,2112.04,2.6,2.6,118.5369,10.60%,26.50%,62.90%,46.45365,8,0.353952,0.391892,2.5,4.5,0.3,8.00925,0.0137457,6.4074,118.002,1,76.6667,0,24,22.7251,,,,,,,,,,,,,,15.51321,,,28.4064,,,,,,,,,,,128.341
459,[30],B17,56.59,23.89,4.82,9.42,1.83,0.24,1.03,0.39,0,0,0,0,,0,,397.2588,,,,,1246.24,544.629,1790.87,2.6,2.6,100.917,10.60%,26.50%,62.90%,41.6481,14,0.358871,0.412698,2.5,4.5,0.3,49.65735,0.0241935,9.6111,137.226,1,46.1111,0,24,23.0561,,,,,,,,,,,,14.9616,,18.6848,,,28.8201,,,,,,,,,,,122.794
468,[30],B26,56.59,23.89,4.82,9.42,1.83,0.24,1.03,0.39,0,0,0,0,,0,,408.472,,,,,1281.48,560.6475,1842.13,2.6,2.6,104.12,10.60%,26.50%,62.90%,41.6481,14,0.356863,0.4,2.5,4.5,0.3,16.0185,0.0156863,6.4074,103.68,1,46.1111,0,24,24.7108,,,,,,,,,,,,29.0959,,29.7164,,,30.8885,,,,,,,,,,,118.215
477,[30],C1,54.7,29,6.74,1.29,0.8,1.88,2.47,0.1,0,0,0,0,,0,,408.472,,,,,1041.2,800.925,1842.13,2.6,2.6,104.12,10.60%,26.50%,62.90%,41.6481,12,0.356863,0.4,2.5,4.5,0.3,16.0185,0.0156863,6.4074,107.012,2,55,0,24,25.9795,,,,,,,,,,,,28.7511,,29.9233,,,32.4743,,,,,,,,,,,136.788
486,[31],Mix-5A,57.3,27.13,8.06,0.03,2.13,0.73,0,1.06,0,0,0,0,,1.6,,428,,,,,1170,630,1800,,,122,16.84%,35.01%,48%,49,14,0.399533,0.401639,2.1,4.2,0.3,43,0.0198598,8.5,128.403,2,75,,24,,,32,,,,,,,,,,,,,,,,,,,,,,,,170,,186.966
495,[31],Mix-9A,57.3,27.13,8.06,0.03,2.13,0.73,0,1.06,0,0,0,0,,1.6,,428,,,,,1170,630,1800,,,114,16.84%,35.01%,48%,57,14,0.399533,0.5,2.1,4.2,0.3,43,0.0100467,4.3,125.551,1,60,,24,,,38,,,,,,,,,,,,,,,,,,,,,,,,,,143.061
504,[32],Mix 7A,45.1638,24.8916,2.43127,17.5277,5.43387,0.183948,0.717952,0,1.19958,0.246649,0,0,,0.822159,,325,217,,,,1092,468,1560,2.79,2.63,213,8.93%,29.80%,61%,85,6,0.549815,0.399061,3.3,2.9,0.4,0,0,0,195.1051,,25,,24,,32.7006,,,,,,32.7006,,,,,,,,,,,,,,,,,,,,,135.818
513,[32],Mix 3B,45.2472,24.9564,2.43864,17.4094,5.39462,0.184472,0.718438,0,1.20387,0.248175,0,0,,0.820551,,394,259,,,,858,520,1378,2.79,2.63,81,14.92%,29.80%,55%,69,8,0.229709,0.851852,2.0,2.1,0.3,125,0,0,216.6968,,25,,24,38.25,53.2493,,,38.25,,,53.2493,,,,,,,,,,,,,,,,,,,,,93.1016
522,[32],Mix 19B,45.2472,24.9564,2.43864,17.4094,5.39462,0.184472,0.718438,0,1.20387,0.248175,0,0,,0.820551,,394,259,,,,609,754,1363,2.79,2.63,108,14.92%,29.80%,55%,92,8,0.306279,0.851852,2.0,2.1,0.3,90,0,0,212.2624,,25,,24,,52.1414,,,,,,52.1414,,,,,,,,,,,,,,,,,,,,,116.844
531,[32],Mix 15B,48.8729,27.7715,2.75865,12.2697,3.68897,0.207214,0.739556,0,1.39068,0.314451,0,0,,0.750701,,448,137,,,,858,572,1430,2.79,2.63,98,14.92%,29.80%,55%,82,8,0.307692,0.836735,2.0,2.4,0.4,104,0,0,213.9344,,25,,24,,37.5029,,,,,,37.5029,,,,,,,,,,,,,,,,,,,,,101.3096
540,[33],M3,54,22,8.5,6,1.6,1,1.6,0,1.2,0,0,0,,0,,500,,,,,,,1603.6,,,90,8.40%,27.80%,63.80%,135,12,0.45,1.5,3.3,3.2,0.3,0,0,0,127.62,,24,,24,,40.36,,,,,,40.36,,,,,,,,,,,,,,,,,,,70,,166.189
549,[34],M5,47.64,25.11,7.884,14.387,1.82,0.387,0.47,1.673,0,0,0,0,,0.629,,245,105,,,,1081,483,1564,,,100,14.70%,29.40%,55.90%,40,14,0.4,0.4,2.0,4.5,0.2,0,0,0,73.5,,24,1,24,13.1,35.73,,,13.1,,,35.73,,,,,,,,,,13.1,,,,35.73,,,,,,,92.8432
558,[35],Mix 7 T80º,42.04,33.6,4.4,12.37,0,0,0,0.4,0,0,0,0,,2.32,,427,,,,,1276.8,547.2,1824,2.74,2.67,46.93,14.70%,29.40%,56%,,14,0.109906,0,2.0,4.3,0.3,91,0.01,4.27,119.796,1,80,,24,,,50.6,,,,,,,,,,,,,,,,,,,,,,,,72,,103.615
567,[35],Mix 2 T80º,42.04,33.6,4.4,12.37,0,0,0,0.4,0,0,0,0,,2.32,,427,,,,,1276.8,547.2,1824,2.74,2.67,46.93,14.70%,29.40%,56%,,10,0.109906,0,2.0,4.3,0.3,91,0,0,117.234,1,80,,24,,,42,,,,,,,,,,,,,,,,,,,,,,,,,,88.2532
576,[36],GPC1,49.165,22.235,1.075,20.2,4.605,0.675,0,1.38,0,0,0,0,,0.545,,231.72,231.72,,,,1123.2,604.8,1728,2.7,2.8,148.96,16.51%,34.80%,49%,59.59,12,0.450004,0.40004,2.1,3.7,0.3,23.172,2.97773E-05,0.0138,126.687,0.5,80,1,24,51.15,,,38.71,51.15,,,,,,,,,,,,,,,,,,,,,,,,156.03
585,[36],GPC10,49.165,22.235,1.075,20.2,4.605,0.675,0,1.38,0,0,0,0,,0.545,,231.72,231.72,,,,1123.2,604.8,1728,2.7,2.8,148.96,16.51%,34.80%,49%,59.59,12,0.450004,0.40004,2.1,3.7,0.4,23.172,2.97773E-05,0.0138,193.287,0.5,90,1,24,55.53,,,,55.53,,,,,,,,,,,,,,,,,,,,,,170,,159.238
594,[38],(no name on Ref),30.97,17.41,1.03,36.77,9.01,0.69,0.46,1.82,0,0,0,0,,0,,,356.36,,,,1284.29,467.12,1751.41,2.62,2.75,80.18,9.00%,28.00%,63.00%,80.18,8,0.449994,1,3.1,4.9,0.3,0.0,0.009989898,3.56,107.1718,,24,,24,38.6723,41.291,,31.2105,38.6723,47.3884,,41.291,,,,,,,,,,,,,,,,,,,,,111.629
603,[38],(no name on Ref),30.97,17.41,1.03,36.77,9.01,0.69,0.46,1.82,0,0,0,0,,0,,,356.36,,,,1284.29,467.12,1751.41,2.62,2.75,80.18,9.00%,28.00%,63.00%,80.18,14,0.449994,1,3.1,4.9,0.2,0.0,0.009989898,3.56,87.9286,,24,,24,48.0408,48.7669,,39.6596,48.0408,50.8408,,48.7669,,,,,,,,,,,,,,,,,,,,,148.48
612,[40],A1,60.42,4.26,3.34,11,5.31,0.18,5.03,0.45,0.19,4.48,0,0,,2.55,,,0,,,363.1,1203.6,648.6,1852.2,2.55,2.62,128.4,8.76%,29.13%,62%,51.5,10,0.495456,0.40109,3.3,5.1,0.3,0.0,0,0,110.649,1,60,0.5,24,,55.4,,43.32,,52.7,,55.4,,,,,,,,,,,,,,,,,,,,,117.022
621,[40],A10,53.4939,4.29199,3.06008,19.5057,6.14777,0.150008,4.03427,1.12981,0.203996,3.59224,0,0,,2.45003,,,72.6,,,290.5,1203.6,648.6,1852.2,2.55,2.62,128.4,8.76%,29.13%,62%,51.5,10,0.495456,0.40109,3.3,5.1,0.3,0.0,0,0,110.649,0.75,60,0.5,24,,,,54.48,,,,,,,,,,,,,,,,,,,,,,,,,115.183
630,[41],C16,53.492,4.292,3.06,19.508,6.148,0.15,4.034,1.13,0.204,3.592,0,0,,2.45,,,71,,,284,1209,649,1858,,,127,8.76%,29.13%,62%,51,16,0.501408,0.401575,3.3,5.2,0.3,0.0,0,0,115.2397,1,60,0.5,24,,51.21,,46.65,,49.35,,51.21,,,,,,,,,,,,,,,,,,,,,143.294
639,[42],Mix 9,49,31,2.8,5.4,2.5,3.76,1.17,0.3,2.1,0.9,0.1,0.1,,0.3,,424.8,,,,,1185.6,585.6,1771.2,,,95.04,14.70%,29.40%,56%,63.36,14,0.372881,0.666667,2.0,4.2,0.4,0.0,0.001977401,0.84,170.79,1,70,,24,,,,,,,,,,,,,,,44.4,,,,,,,,,,,,200,,142.817
656,[43],12M OpenAir,41.45,21.535,5.515,22.605,3.645,0.235,0.415,1.505,1.3,0.325,0,0.285,,0.725,,394.29,394.29,,,,1294,554,1848,,,112.65,13.70%,29.40%,57%,45.6,12,0.200677,0.404794,2.1,2.3,0.1,0.0,0,0,87.80985,,25,,24,,58,,,,53.81,,58,77.34,85.01,,,,,,,,,,,,,,,,,,,113.42
665,[44],T6,37.5,6.4,0.51,34.8,8.6,0.38,0.9,2.49,0,0,0,0,,0,,,368,,,,,,1848,2.68,2.64,92,15.00%,39.00%,46%,92,6,0.5,1,2.6,5.0,0.5,0.0,0,0,171.04,,25,,24,54.7,57.18,,,54.7,,,57.18,,,,,,,,,,,,,,,,,,,,,103.4096
674,[45],M25-12M,64.11,18.58,4.32,1.21,0.24,0.21,1.02,0,0,0,0,0,,0.64,,463.5,,,,,1154.06,530.7,1684.76,2.66,2.61,120,14.26%,29.43%,56%,80,12,0.431499,0.666667,2.1,3.6,0.2,0.0,0,0,109.172,1,90,1,24,,35.98,,20.35,,,,35.98,,,,,,,,,,,,,,,,,,,,,168.385
683,[46],PA1.25,49.37,31.25,4.47,4.8,1.28,1.3,2.21,0.24,2.94,1.65,0,0,0.04,0,,418,,,,,931,702,1633,2.58,2.5,266,14.70%,29.40%,56%,78,15,0.822967,0.293233,2.0,3.9,0.5,0.0,0,0,191.894,1,80,,24,,26.48,,,,,,,,,,,,,,,,,,,,33.1,,,,,,,230.184
692,[46],MP0.75,65.24,25.2,1.12,0.83,0,0,4.21,0.25,1.74,1.16,0,0,,0,,425,,,,,946,714,1660,2.58,2.5,163,14.70%,29.40%,56%,132,15,0.694118,0.809816,2.0,3.9,0.4,30,0,0,173.917,1,80,,24,,19.28,,,,,,,,,,,,,,,,,,,,24.1,,,,,,,255.308
721,[47],P12,49.8056,24.5,10.1536,9.304,0.312,0.3768,0.4752,0.564,0.6248,1.4256,0,0,,0.8384,48,352,,,,,1209,651,1860,,,114.3,11.40%,30.10%,59%,45.7,14,0.4,0.399825,2.6,4.7,0.2,0,0,0,86.9735,,25,,24,19.07144,29.14288,,,,,,,,,,,,,14.7321,,,23.8393,,,,36.4286,40.4464,42.3214,,,,,140.813
730,[48],Mix 4 - 100ºC,48,33.59,4.55,1.215,0.82,0.555,1.42,0,0,0,0,0,,8.88,,194,,,194,,1293,554,1847,2.5,2.6,112.9,11.40%,28.50%,60%,45.2,14,0.407474,0.400354,2.5,4.8,0.2,0.0,0.0103093,4,90.1409,3,100,2,24,53.4875,,,,53.4875,,,,,,,,,,,,,,,,,,,,,,,,314.673
742,[49],D.M16-350-1:3,61.3,29.4,3.27,1.21,0.75,0.73,1.2,0.003,0.01,0,0,0,,0.45,,350,,,,,1167,777,1944,2.65,2.63,133.18,13.70%,29.40%,57%,133.18,16,0.761029,1,2.1,5.6,0.2,0.0,0,0,73.20271,1,60,,24,35.2,36.8,,29.4,35.2,,,36.8,,,,,,,,,,,,,,,,,,,140,,244.36
751,[49],D.M16-450-1:3,61.3,29.4,3.27,1.21,0.75,0.73,1.2,0.003,0.01,0,0,0,,0.45,,450,,,,,1051,700,1751,2.65,2.63,169.83,13.70%,29.40%,57%,133.18,16,0.673356,0.784196,2.1,3.9,0.2,0.0,0,0,73.20271,1,60,,24,42.1,43.9,,36.8,42.1,,,43.9,,,,,,,,,,,,,,,,,,,145,,257.027
760,[50],M03,30.97,17.41,1.03,36.77,9.01,0.69,0.46,1.82,0,0,0,0,,0,,,400,,,,1024,524,1548,2.85,2.63,156.25,9.00%,28.00%,63%,62.86,14,0.547775,0.402304,3.1,3.9,0.3,0.0,0,0,126.0959,,25,,24,,59.2208,,,,,,59.2208,,,,,,,,,,,,,,,,,,,,,151.891
769,[50],M12,37.279,25.987,0.901,25.766,6.316,0.513,0.331,1.274,0,0,0,0,,0,,,280,,120,,1024,524,1548,2.85,2.63,156.25,9.00%,28.00%,63%,62.86,14,0.547775,0.402304,3.1,3.9,0.3,0.0,0,0,126.0959,,25,,24,42.2938,60.7993,,,42.2938,,,60.7993,,,,,,,,,,,,,,,,,,,,,185.251
778,[52],,37.5,6.4,0.51,34.8,8.6,0.38,0.9,0,0,0,0,0,,0,,,413.8,,,,,,1800,2.68,2.64,31,15.00%,39.00%,46%,155.2,6,0.449976,5.00645,2.6,4.3,0.4,0.0,0,0,179.212,,25,,24,47.02,58.11,,,47.02,,,58.11,,,,,,,,,,,,,,,,,,,,,112.648
787,[53],S/H 2-15M Room,45.23,19.95,13.15,15.51,3.2,0,0,0,0,0,0,0,,0,,414,,,,,1091,588,1679,2.65,2.58,138,15.32%,32.87%,52%,69,15,0.5,0.5,2.1,4.1,0.2,0.0,0,0,99.0978,,25,,24,18.392,31.216,,,,,,,,,,,,,,,,22.99,,,,39.02,,,,,,550,138.6762
796,[54],M2,50.3,31.51,3.6,5.08,1.529,0.243,0.747,0.252,0,0,0,0,,5.607,,367.2,40.8,,,,1294,554,1848,,,103,8.00%,28.00%,64%,41,8,0.352941,0.398058,3.5,4.5,0.2,0.0,0.015,6.12,97.472,,25,,24,18.67,21.11,,,18.67,,,21.11,,,,,,,,,,,,,,,,,,,,,86.1712
805,[56],F100-0.35,49,31,2.8,5,2.5,3.8,1.2,0.3,2.1,0.9,0.1,0.1,,0.3,,475,,,,,1235,529,1794,,,108.34,9.00%,29.00%,62%,57.66,14,0.349474,0.532213,3.2,3.8,0.2,0.0,0,0,92.5406,,25,,25,7.52,21.76,,,,,,,,,,,,,,,,9.4,,,,27.2,,,,,235,,111.352
814,[58],Mix no.6,62.3,28.1,2.1,0.5,1,0.5,1,0.4,0,0,0,0,,2.5,0,450,,,,,830,830,1660,2.5,2.67,112.5,11.40%,30.10%,59%,10.5016,16,0.273337,0.0933472,2.6,3.7,0.3,0.0,0.0233333,10.5,123.3125,2,50,1,24,33.0189,38.1929,,,33.0189,,,38.1929,,,,,,,,,,,,,,,,,,,99.7826,,157.243
823,[58],Mix no.12,62.3,28.1,2.1,0.5,1,0.5,1,0.4,0,0,0,0,,2.5,,400,,,,,875,875,1750,2.5,2.67,100,11.40%,30.10%,59%,40,16,0.35,0.4,2.6,4.4,0.3,0.0,0.02625,10.5,114.2,2,90,1,24,30.1276,32.7158,,,30.1276,,,32.7158,,,,,,,,,,,,,,,,,,,171.25,,198.181
832,[59],Mix no.7,62.3,28.1,2.1,0.5,1,0.5,1,0.4,0,0,0,0,,2.5,,400,,,,,887,887,1774,2.5,2.67,100,11.40%,30.10%,59%,40,16,0.35,0.4,2.6,4.4,0.3,0.0,0.00625,2.5,109.4,2,50,1,24,30.4918,32.9508,,,30.4918,,,32.9508,,,,,,,,,,,,,,,,,,,41.9048,,131.923
841,[60],SS-W-OM-2,53.5,28.8,7.5,1.6,0.8,0.4,0.4,0.1,0,0,0,0,,3.1,,408,,,,,1110,739,1849,,,103,14.70%,29.40%,56%,41,14,0.352941,0.398058,2.0,4.5,0.2,0.0,0,0,75.617,2,75,1,24,47.6,,,,,,,,,,,,,,,,,59.5,,,,,,,,,,,155.722
850,[62],Mix 4,40.17,13.86,15.16,9.7,9.57,3.66,1.53,0.09,0,0,0,0,,4.75,,,,,,410,740,1110,1850,2.44,2.6,103,11.00%,29.00%,60%,41,14,0.35122,0.398058,2.6,4.5,0.5,0.0,0.04,16.4,190.68,,25,,24,17.8,21.4,,,17.8,,,21.4,,,,,,,,,,,,,,,,,,,,,120.7604
859,[62],Mix 13,40.17,13.86,15.16,9.7,9.57,3.66,1.53,0.09,0,0,0,0,,4.75,,,,,,410,740,1110,1850,2.44,2.6,108,11.00%,29.00%,60%,36,14,0.35122,0.333333,2.6,4.5,0.5,0.0,0.03,12.3,189.02,,25,,24,19.1,23.1,,,19.1,,,23.1,,,,,,,,,,,,,,,,,,,,,109.4904
868,[62],Mix 15,40.17,13.86,15.16,9.7,9.57,3.66,1.53,0.09,0,0,0,0,,4.75,,,,,,410,740,1110,1850,2.44,2.6,132,11.00%,29.00%,60%,53,14,0.45122,0.401515,2.6,4.5,0.5,0.0,0.03,12.3,192.9,1,40,1,24,25.3,29.4,,22.1,25.3,,,29.4,,,,,,,,,,,,,,,,,,,,,145.9862
878,[64],,32.62,31.23,8.48,17.12,3.49,0.91,0.1,0,1.65,0,0,0,,0.93,,414,,,,,1260,540,1800,2.69,2.6,133,14.70%,29.40%,56%,53,12,0.449275,0.398496,2.0,4.3,0.3,14,0.0140097,5.8,119.387,,25,,24,17.8322,24.3357,,,17.8322,24.3357,,24.3357,21.8182,,,,,,,,,,,,,,,,,,90,,117.7976
887,[65],20 Class  F,54.7,29,6.74,1.29,0.8,1.88,0,0.1,0,0,0,0,,0,,408,,,,,1080,830,1910,,,83.2,10.60%,26.50%,63%,41.6,14,0.305882,0.5,2.5,4.7,0.2,0,0,0,70.6368,1,46,0,24,6.32,,,,,,,,,,,,,,,,,7.9,,,,,,,,,,,98.83884
896,[65],30 Class C,58.05,21.59,5.1,9.42,1.86,0.92,0,0.39,0,0,0,0,,0,,408,,,,,1320,590,1910,,,83.2,10.60%,26.50%,63%,41.6,8,0.305882,0.5,2.5,4.7,0.2,0,0,0,80.6208,2,55,0,24,27.2,,,,,,,,,,,,,,,,,34,,,,,,,,,,,104.744
905,[66],GPC2-120,51.7,31.9,3.48,1.21,0.81,0.51,0.51,0.25,0,0,0,0,,9.63,,431,,,,,1113,612,1725,2.7,2.65,154,12.80%,25.50%,62%,62,8,0.50116,0.402597,2.0,4.0,0.3,0,0,0,137.178,0.416667,120,,65,44.008,,,,,,,,,,,,,,,,,55.01,,,,,,,,,,,128.837
914,[67],GPC-HC-7,58.772,23.615,4.99,6.427,1.191,0.441,1.284,0.487,1.157,0.191,0,0.124,,1.323,,271.6,38.8,,77.6,,1221.2,620.8,1842,2.65,2.8,138.7,14.70%,29.40%,56%,55.3,12,0.5,0.398702,2.0,4.7,0.3,13.3,0,0,119.5893,0.75,75,,24,47.6,48,,,,,,,,,,,55.9,,59.8,,,59.5,,,,60,,,,,,,162.38
924,[68],GPC-60D-24h,58.772,23.615,4.99,6.427,1.191,0.441,1.284,0.487,1.157,0.191,0,0.124,,1.323,,271.6,38.8,,77.6,,1221.2,620.8,1842,2.8,2.65,138.7,14.70%,29.40%,56%,55.3,12,0.5,0.398702,2.0,4.7,0.3,13.3,0,0,119.5893,1,60,,24,,40,,,,,,,,,,,,,,,,,,,,50,,,,,,,160.776
933,[69],GPF,50.7,28.8,8.8,2.38,1.39,0.84,2.4,0.3,0,0,0,0,,3.79,,400,,,,,1293,554,1847,2.5,2.6,112.9,11.40%,28.50%,60%,45.2,14,0.39525,0.400354,2.5,4.6,0.2,0,0.01,4,90.1409,3,100,2,24,35.9312,45.7323,,30.1851,35.9312,40.4108,40.2829,45.7323,,,,,,,,,,,,,,,,,,,30,,251.477
942,[70],Mix 5,61.89,28.05,4.11,0.87,0.38,0.4,0.82,1.32,0,0,0,0,,0.49,,250,,,,,1567,380,1947,2.745,2.62,120,9.00%,28.00%,63%,80,16,0.8,0.666667,3.1,7.8,0.4,0,0,0,104.4,1,60,,24,,23.45,,,,,,23.45,,28.26,,,,,,,,,,,,,,,,,300,,174.052
951,[71],C9,68.1,24.1,3.73,0.91,0.22,0.08,0.35,0.03,1.14,0,0,0,,0,,,,,306.4,,929.9,702.4,1632.3,,,253.3,8.00%,26.50%,66%,,,0.826697,0,3.3,5.3,0.8,67.6,0,0,233.5115,,25,,24,19,,,,19,,,,,,,,,,,,,,,,,,,,,,250,,211.242
960,[72],SiO3/OH = 2.5 60ºC AL/GGBFS = 0.35,34.01,16.62,1.71,34.85,9.11,0.48,0.46,1.55,0.69,0.04,0,0,,0.35,,,560,,,,1148,668,1816,2.74,2.74,75,23.30%,20.80%,56%,121,14,0.35,1.61333,0.9,3.2,0.2,0,0,0,95.165,0.25,60,,24,22.8,24.17,,19.44,22.8,,,24.17,32.64,,,,,,,,,,,,,,,,,,,,200.212
969,[72],SiO3/OH = 2.5 80ºC AL/GGBFS = 0.35,34.01,16.62,1.71,34.85,9.11,0.48,0.46,1.55,0.69,0.04,0,0,,0.35,,,560,,,,1148,668,1816,2.74,2.74,75,23.30%,20.80%,56%,121,14,0.35,1.61333,0.9,3.2,0.2,0,0,0,95.165,0.25,80,,24,27.65,30.01,,21.09,27.65,,,30.01,39.56,,,,,,,,,,,,,,,,,,,,203.42
978,[72],SiO3/OH = 2.5 100ºC AL/GGBFS = 0.35,34.01,16.62,1.71,34.85,9.11,0.48,0.46,1.55,0.69,0.04,0,0,,0.35,,,560,,,,1148,668,1816,2.74,2.74,75,23.30%,20.80%,56%,121,14,0.35,1.61333,0.9,3.2,0.2,0,0,0,95.165,0.25,100,,24,22.25,29.46,,18.95,22.25,,,29.46,31.84,,,,,,,,,,,,,,,,,,,,206.628
987,[73],G325,29.945,10.0725,3.005,46.1775,2.035,0.2375,0.8025,2.2325,0.46,0.135,0,0,,0,262.5,87.5,,,,,1123.66,749.11,1872.77,,,34.38,16.27%,34.64%,49%,13.75,10,0.137514,0.399942,2.1,5.4,0.5,146.06,0,0,171.187,1,100,1,40,30.4006,35.0097,,,30.4006,,,35.0097,,,,,,,,,,,,,,,,,,,,,300.874
996,[74],GTS1,61.85,27.36,5.18,1.47,1,0.08,0.63,0.05,1.84,0.54,0,0,,1,,330,,,,,1350,727,2077,2.71,2.67,88,14.30%,32.90%,53%,44,8,0.4,0.5,2.3,6.3,0.2,0,0,0,76.384,1,60,1,24,,18.98,,,,,,18.98,,,,,,,,,,,,,,,,,,,,,92.3911
1005,[75],Mix 2 14M,47.26,23.0567,6.83,13.4367,3.28333,0.396667,0.396667,1.24,1.28333,0.253333,0,0.426667,,1.23333,,300,150,,,,1058.2,742.7,1800.9,,,128.571,8.00%,27.00%,65%,51.4286,14,0.4,0.4,3.4,4.0,0.2,0,0.0148889,6.7,110.22,,25,,24,28.304,,,,,,,,,,,,,,,,,35.38,,,,,,,,,,,131.678
1014,[76],GPR1 90ºC,37.4573,12.7237,2.56541,30.4637,6.37373,0,0,0,0,0,0,0,,0,,,355,,,39,1201,647,1848,2.87,2.6,113,14.70%,29.40%,56%,45,8,0.401015,0.39823,2.0,4.7,0.4,59,0.015,5.91,156.313,0.666667,90,,24,67.45,72.34,,64.53,67.45,,,72.34,,,,,,,,,,,,,,,,,,,,,134.503
1023,[77],C4,39.82,18.004,5.634,18.832,3.574,0.954,2.826,1.244,0.898,0.102,0.052,0.234,,3.102,,240,160,,,,1110,720,1830,2.77,2.69,94,12.80%,25.50%,62%,77,10,0.4275,0.819149,2.0,4.6,0.4,55,0,0,159.198,,25,,24,44.9,69.1,8.2,,44.9,,,69.1,,,,,,,,,,,,,,,,,,,220,,110.886
1032,[77],C15,39.8296,18.0102,5.63884,18.8091,3.57091,0.953912,2.82774,1.24353,0.898209,0.102094,0.0519835,0.233747,,3.10264,,218,145,,,,1111,721,1832,2.77,2.69,86,12.80%,25.50%,62%,70,10,0.429752,0.813953,2.0,5.0,0.5,76,0,0,171.062,,25,,24,33.3,51.2,11.6,,33.3,,,51.2,,,,,,,,,,,,,,,,,,,200,,101.7856
1041,[78],Collie FA,53.82,29.95,9.24,1.03,0.58,0.75,0.79,0.34,2.19,1.28,0,0,0.04,0.63,,420,,,,,936,706,1644,2.6,2.5,241,14.70%,29.40%,56%,92,15,0.792857,0.381743,2.0,3.9,0.4,15,0,0,186.519,1,80,1,24,,23.68,,,,,,,,,,,,,,,,,,,,29.6,,36.5,,42.8,,450,237.331
1050,[79],TM8,32.4,14.96,0.83,40.7,5.99,0.42,0.29,2.74,0.84,0.38,0,0.4,,0,,,500,,,,1082,583,1665,,,135,14.70%,29.40%,56%,90,14,0.45,0.666667,2.0,3.3,0.4,60,0.05,25,190.065,,25,,24,32.104,34.344,,,,,,,,,,,,,,,,40.13,,,,42.93,,,,,,,226.108
1059,[79],MK 10%,34.381,17.872,0.747,36.799,5.391,0.378,0.261,2.466,0.774,0.342,0,0.36,,0,,,405,,45,,1161,625,1786,,,105,14.70%,29.40%,56%,53,14,0.351111,0.504762,2.0,4.0,0.3,54,0.05,22.5,149.515,,25,,24,32.024,,,,,,,,,,,,,,,,,40.03,,,,,,,,,180,,181.42
1068,[79],SF 40%,53.744,9.732,0.722,24.788,3.918,0.548,0.518,1.764,0.504,0.228,0,0.24,,1.6,,,270,180,,,1161,625,1786,,,105,14.70%,29.40%,56%,53,14,0.351111,0.504762,2.0,4.0,0.3,54,0.05,22.5,149.515,,25,,24,24.328,,,,,,,,,,,,,,,,,30.41,,,,,,,,,200,,162.07
1077,[81],M5 - 0.5days,40.48,12.9,17.62,11.83,8.33,3.6,1.67,3.6,1.37,0,0,0,,1.6,,,,,,350,1236,657,1893,2.62,2.56,154,8.75%,28.75%,63%,56,14,0.6,0.363636,3.3,5.4,0.3,0,0,0,120.89,0.5,60,1,65,,,14.5826,,,,,,,,,,,,,,,,,,,,,,,,85,,135.81
1086,[81],M2 - 1days,40.48,12.9,17.62,11.83,8.33,3.6,1.67,3.6,1.37,0,0,0,,1.6,,,,,,350,1236,666,1902,2.62,2.56,140,8.75%,28.75%,63%,70,14,0.6,0.5,3.3,5.4,0.3,0,0,0,118.3,1,60,1,65,,,20.7693,,,,,,,,,,,,,,,,,,,,,,,,82,,157.056
1095,[81],M13 - 1days,40.48,12.9,17.62,11.83,8.33,3.6,1.67,3.6,1.37,0,0,0,,1.6,,,,,,450,1176,633,1809,2.62,2.56,150,8.75%,28.75%,63%,60,14,0.466667,0.4,3.3,4.0,0.3,0,0,0,120.15,1,60,1,65,,,23.2757,,,,,,,,,,,,,,,,,,,,,,,,44,,149.486
1104,[81],M9 - 3days,40.48,12.9,17.62,11.83,8.33,3.6,1.67,3.6,1.37,0,0,0,,1.6,,,,,,400,1190,640,1830,2.62,2.56,165,8.75%,28.75%,63%,60,14,0.5625,0.363636,3.3,4.6,0.3,0,0,0,129.525,3,60,1,65,,,17.8665,,,,,,,,,,,,,,,,,,,,,,,,80,,199.903
1113,[81],M5 - 7days,40.48,12.9,17.62,11.83,8.33,3.6,1.67,3.6,1.37,0,0,0,,1.6,,,,,,350,1236,657,1893,2.62,2.56,154,8.75%,28.75%,63%,56,14,0.6,0.363636,3.3,5.4,0.3,0,0,0,120.89,7,60,1,65,,,30.0903,,,,,,,,,,,,,,,,,,,,,,,,85,,281.789
1122,[81],M2 - 14days,40.48,12.9,17.62,11.83,8.33,3.6,1.67,3.6,1.37,0,0,0,,1.6,,,,,,350,1236,666,1902,2.62,2.56,140,8.75%,28.75%,63%,70,14,0.6,0.5,3.3,5.4,0.3,0,0,0,118.3,14,60,1,65,,,28.9227,,,,,,,,,,,,,,,,,,,,,,,,82,,449.014
1131,[81],M13 - 14days,40.48,12.9,17.62,11.83,8.33,3.6,1.67,3.6,1.37,0,0,0,,1.6,,,,,,450,1176,633,1809,2.62,2.56,150,8.75%,28.75%,63%,60,14,0.466667,0.4,3.3,4.0,0.3,0,0,0,120.15,14,60,1,65,,,35.6925,,,,,,,,,,,,,,,,,,,,,,,,44,,441.444
1140,[81],M9 - 28days,40.48,12.9,17.62,11.83,8.33,3.6,1.67,3.6,1.37,0,0,0,,1.6,,,,,,400,1190,640,1830,2.62,2.56,165,8.75%,28.75%,63%,60,14,0.5625,0.363636,3.3,4.6,0.3,0,0,0,129.525,28,60,1,65,,,33.3728,,,,,,,,,,,,,,,,,,,,,,,,80,,761.361
1149,[82],14M Oven,47.6,21.4,7.8,11.9,1.8,0.7,0.82,2.8,1.88,0,0,0,,3.3,,550,,,,,838,600,1438,2.7,2.64,144,12.00%,30.00%,58%,95,14,0.434545,0.659722,2.5,2.6,0.2,0,0,0,125.32,1,65,0,24,,40.5,,,,,,40.5,,,,,,,,,,,,,,,,,,,,,188.487
1158,[83],T5,53.59,28.46,8.71,4.23,1.84,0.58,1.63,0.96,0,0,0,0,,0,,350,,,,,914,493,1406.77,2.65,2.64,109.038,16.20%,34.72%,49%,48.4615,15,0.45,0.444444,2.1,4.0,0.2,0,0.02,7,77.1007,1,70,0,24,,,,43.2,,,,,,,,,,,,,,,,,,,,,,,,,145.124
1167,[83],T14,53.59,28.46,8.71,4.23,1.84,0.58,1.63,0.96,0,0,0,0,,0,,350,,,,,990,534,1524,2.65,2.64,141.167,16.20%,34.72%,49%,51.3333,15,0.55,0.363636,2.1,4.4,0.3,0,0.02,7,94.0179,1,70,0,24,,,,45.7,,,,,,,,,,,,,,,,,,,,,,,,,160.552
1176,[83],T23,53.59,28.46,8.71,4.23,1.84,0.58,1.63,0.96,0,0,0,0,,0,,350,,,,,1066.4,574.829,1641.23,2.65,2.64,137.5,16.20%,34.72%,49%,55,10,0.55,0.4,2.1,4.7,0.3,0,0.02,7,104.685,1,80,0,24,,,,48.8,,,,,,,,,,,,,,,,,,,,,,,,,149.36
1185,[83],T32,53.59,28.46,8.71,4.23,1.84,0.58,1.63,0.96,0,0,0,0,,0,,350,,,,,1066.4,574.829,1641.23,2.65,2.64,137.5,16.20%,34.72%,49%,55,20,0.55,0.4,2.1,4.7,0.2,0,0.02,7,82.685,1,90,0,24,,,,44.9,,,,,,,,,,,,,,,,,,,,,,,,,197.906
1192,[83],F90C10,50.592,26.183,8.145,10.083,1.754,0.55,1.543,0.864,0,0,0,0,,0,31,279,,,,,1204,649,1853,2.65,2.64,122,16.20%,34.72%,49%,48.8571,10,0.551152,0.400468,2.1,6.0,0.3,0,0.02,6.2,92.982,1,80,0,24,52.562,55.0413,,50.8264,52.562,,,55.0413,,58.0165,,,,,,,,,,,,,,,,,65,,164.343
1196_1,[83],F70C30,44.596,21.629,7.015,21.789,1.582,0.49,1.369,0.672,0,0,0,0,,0,93,217,,,,,1204,649,1853,2.65,2.64,122,16.20%,34.72%,49%,48.8571,10,0.551152,0.400468,2.1,6.0,0.3,0,0.02,6.2,92.982,1,80,0,24,,,,,,,,,,,,,,,,,,,,,,,,,,,50,,216.175
1205,[85],T5,36.739,14.385,17.163,22.922,2.319,0.858,0.701,4.913,0,0,0,0,,0,31.8,286.2,,,,,1230,662,1892,2.54,2.58,125,16.20%,34.72%,49%,50,5,0.550314,0.4,2.1,5.9,0.3,0,0.02,6.36,105.166,1,70,,24,54.31,,,,54.31,,,,,,,,,,,,,,,,,,,,,,,,141.9202
1214,[85],T14,34.848,13.29,15.766,27.734,2.158,0.826,0.722,4.656,0,0,0,0,,0,63.6,254.4,,,,,1230,662,1892,2.54,2.58,125,16.20%,34.72%,49%,50,10,0.550314,0.4,2.1,5.9,0.3,0,0.02,6.36,95.166,1,80,,24,63.67,,,,63.67,,,,,,,,,,,,,,,,,,,,,,,,194.072
1223,[87],A40 S10,51.335,25.705,10.582,6.255,0,0.355,0.524,0.632,1.504,0.685,0,0,,0.851,,360,40,,,,1209,651,1860,,,114.3,11.50%,30.00%,59%,45.7,14,0.4,0.399825,2.6,4.7,0.2,0,0,0,86.9735,,25,,24,,30.64,,,,,,,,,,,,,,,,,,,,38.3,,45.5,,,,,102.605
1234,[89],10C4,46.78,22.52,9.15,2.24,1.33,0.89,4.09,0.9,1.05,0.17,0,0,0.05,3.57,,367,,,,,1145,742,1887,2.7,2.6,86,12.80%,25.50%,62%,71,7.5,0.427793,0.825581,2.0,5.1,0.3,0,0,0,102.762,28,70,,65,21.0857,18.8635,13.308,,21.0857,,,18.8635,,,,,,,,,,,,,,,,,,,3.77142,,890.7751
1243,[89],8C4,43.319,20.2743,7.40158,10.4908,2.44589,0.921826,3.46144,1.07106,0.974414,0.136185,0,0,0.141499,3.33728,,294,73,,,,1111,721,1832,2.7,2.6,86,12.80%,25.50%,62%,71,7.5,0.427793,0.825581,2.0,5.0,0.3,0,0,0,102.762,,20,,24,18.3116,30.9016,4.60786,,18.3116,,,30.9016,,,,,,,,,,,,,,,,,,,191.461,,85.5151
1252,[89],6C2,39.8291,18.0099,5.63859,18.8103,3.57107,0.953916,2.82765,1.24355,0.898198,0.102089,0,0,0.23376,3.10261,,230,153,,,,1111,721,1832,2.7,2.6,90,12.80%,25.50%,62%,74,7.5,0.428198,0.822222,2.0,4.8,0.3,0,0,0,107.33,,20,,24,36.3328,57.9994,6.75086,,36.3328,,,57.9994,,,,,,,,,,,,,,,,,,,213.101,,92.5826
1261,[89],3C1,34.5954,14.614,2.99467,31.287,5.25849,1.00204,1.87716,1.50223,0.783899,0.0509549,0,0,0.372122,2.75069,,113,264,,,,1111,721,1832,2.7,2.6,89,12.80%,25.50%,62%,73,7.5,0.429708,0.820225,2.0,4.9,0.3,0,0,0,106.013,,20,,24,62.5427,77.3575,31.436,,62.5427,,,77.3575,,,,,,,,,,,,,,,,,,,128.505,,96.9521
1270,[90],M20,60.54,26.2,5.87,1.91,0.38,0.51,0.51,0.23,0,0,0,0,,2,,327,,,,,1248,672,1920,2.63,2.78,108.67,14.70%,29.40%,56%,54.33,8,0.498471,0.499954,2.0,5.9,0.4,22,0,0,119.691,1,60,1,24,,31.3,,,,,,31.3,,,,,,,,,,,,,,,,,,,100,,105.397
1279,[91],Mix-7,56.31,31.82,4.77,2.33,1.09,0.042,0.013,0.16,2.01,0,0,0,,0,,580,,,,,1032,556,1588,2.62,2.56,165.71,14.00%,31.00%,55%,66.28,16,0.399983,0.399976,2.2,2.7,0.2,0,0,0,115.0013,1,24,1,24,40.3,,,,40.3,,,,,,,,,,,,,,,,,,,,,,,,150.831
1288,[91],Mix-16,56.31,31.82,4.77,2.33,1.09,0.042,0.013,0.16,2.01,0,0,0,,0,,580,,,,,994,536,1530,2.62,2.56,207.14,14.00%,31.00%,55%,82.86,18,0.5,0.400019,2.2,2.6,0.2,0,0,0,137.1278,1,90,1,24,38.9,,,,38.9,,,,,,,,,,,,,,,,,,,,,,,,240.19
1297,[92],Batch A ambient,65.6,28,3,1,1,0,0,0.2,0.5,0,0,0,,0.29,,405,,,,,1283.08,587.3,1870.38,2.58,2.62,70.88,14.70%,29.40%,55.90%,70.88,14,0.350025,1,2.0,4.6,0.2,0,0,0,70.80912,,24,,24,8.33,14.66,,5.71,8.33,,,14.66,,,,,,,,,,,,,,,,,,,,,112.126
1301_1,[92],Batch E ambient.1,30.61,16.24,0.584,34.48,6.79,0,0,1.85,0,0,0,0,,2.1,,,405,,,,1283.08,587.3,1870.38,2.58,2.62,70.88,14.70%,29.40%,55.90%,70.88,18,0.350025,1,2.0,4.6,0.1,0,0,0,59.46832,,24,,24,,,,,,,,,,,,,,,,,,,,,,,,,,,,,153.284
1306,[92],Batch E oven,30.61,16.24,0.584,34.48,6.79,0,0,1.85,0,0,0,0,,2.1,,,405,,,,1283.08,587.3,1870.38,2.58,2.62,70.88,14.70%,29.40%,55.90%,70.88,23,0.350025,1,2.0,4.6,0.1,0,0,0,45.29232,1,60,,24,48.49,53.11,,41.86,48.49,,,53.11,,,,,,,,,,,,,,,,,,,,,202.889
1314,[94],FA10-80,68.4595,8.72288,4.03672,11.51,2.52722,0.288,1.35774,0.455581,0.940538,0,0,0,0,1.1708,45.9,413.1,,,,,1172,539,1711,,,142.857,15.40%,38.50%,46%,57.1429,10,0.43573,0.4,2.5,3.7,0.2,0,0,0,100.143,1,80,,24,37.96608,40.5424,,,,,,,,,,,,,42.7119,,,47.4576,,48.6441,,50.678,52.0339,,,,,,178.913
1329,[95],VA70FA30,47.1063,21.2692,8.9049,7.7506,6.8832,2.8061,1.0407,0.0238,1.761,0.2982,0,0,,1.135,,115.2,,,,268.8,1185.6,683.4,1869,2.7,2.6,103,11.50%,30.00%,59%,54.85,8,0.411068,0.532524,2.6,4.9,0.3,0,0.02,7.68,102.161,,25,,24,,20.5,,,,,,20.5,,,,,,,,,,,,,,,,,,,,,94.56248
1338,[96],8M2,65.6,26.53,5.49,0.31,0.76,0.36,0.23,0.31,0,0,0,0,,0.41,,397,,,,,1277,547,1824,2.78,2.73,128,16.95%,35.06%,47.99%,51,8,0.450882,0.3984375,2.1,4.6,0.3,0,0.02,7.94,100.8712,1,60,1,27,28.529,32.6797,,22.3542,28.529,,,32.6797,,,,,,,,,,,,,,,,,,,109.841,,125.062
1347,[96],12M1,65.6,26.53,5.49,0.31,0.76,0.36,0.23,0.31,0,0,0,0,,0.41,,430,,,,,1243,533,1776,2.78,2.73,138,16.95%,35.06%,47.99%,55,12,0.448837,0.398551,2.1,4.1,0.2,0,0.02,8.6,99.9862,1,60,1,27,31.035,36.1281,,25.0408,31.035,,,36.1281,,,,,,,,,,,,,,,,,,,114.921,,149.107
1356,[96],14M5,65.6,26.53,5.49,0.31,0.76,0.36,0.23,0.31,0,0,0,0,,0.41,,298,,,,,1377,590,1967,2.78,2.73,96,16.95%,35.06%,47.99%,38,14,0.449664,0.395833,2.1,6.6,0.2,0,0.02,5.96,66.3664,1,60,1,27,30.5618,32.0225,,27.4157,30.5618,,,32.0225,,,,,,,,,,,,,,,,,,,44.7619,,119.608
1365,[96],10M24,65.6,26.53,5.49,0.31,0.76,0.36,0.23,0.31,0,0,0,0,,0.41,,397,,,,,1277,547,1824,2.78,2.73,128,16.95%,35.06%,47.99%,51,10,0.450882,0.3984375,2.1,4.6,0.2,0,0.02,7.94,96.7912,1,90,1,27,35.5522,35.9824,,32.5333,35.5522,,,35.9824,,,,,,,,,,,,,,,,,,,109.841,,152.125
1374,[96],14M23,65.6,26.53,5.49,0.31,0.76,0.36,0.23,0.31,0,0,0,0,,0.41,,397,,,,,1277,547,1824,2.78,2.73,128,16.95%,35.06%,47.99%,51,14,0.450882,0.3984375,2.1,4.6,0.2,0,0.02,7.94,88.6312,1,80,1,27,35.1813,35.1859,,33.7003,35.1813,,,35.1859,,,,,,,,,,,,,,,,,,,109.841,,161.334
1383,[97],SFGC-7,43.2,24.45,0,20.06,3.795,0.295,0.905,1.41,1.475,0.11,0,0,0,0,,200,200,,,,1050,700,1750,2.53,2.34,93,8.90%,32.10%,59.00%,,,0.2325,0,3.6,4.4,0.5,142,0,0,196.87,,24,1,24,28,33.84,,,,,,,,,,,,,16,,,35,,,,42.3,,52.5,,,,,81.805
1392,[98],B20,49.946,23.848,1.402,10.44,9.13,0.658,2.166,0.812,0.846,0,0,0,,0,,320,80,,,,1203,648,1851,,,107,15.36%,30.71%,54%,53,12,0.4,0.495327,2.0,4.6,0.2,0,0.01,4,87.6651,,25,,20,26.9136,45.1852,13.5802,,26.9136,38.2716,,45.1852,,,,,,,,,,,,,,,,,,,70.1059,110.656,109.0824
1401,[99],FA-70 GGBS- 30 B-360 AGG/B-5.18 ALK/B-0.55 T ºC - 25,52.295,24.571,3.215,12.58,3.242,0.154,0,0.515,0,0,0,0,,3.391,,252,108,,,,1090.8,774,1864.8,2.8,2.65,141.429,11.50%,30.00%,59%,56.5714,8,0.55,0.4,2.6,5.2,0.4,0,0.04,14.4,129.844,,25,1,30,,31.0876,,,,,,31.0876,,,,,,,,,,,,,,,,,,,115,,128.228
1410,[99],FA-70 GGBS- 30 B-450 AGG/B-3.85 ALK/B-0.60 T ºC - 25,52.295,24.571,3.215,12.58,3.242,0.154,0,0.515,0,0,0,0,,3.391,,315,135,,,,972,760.5,1732.5,2.8,2.65,192.857,11.50%,30.00%,59%,77.1429,8,0.6,0.4,2.6,3.9,0.4,0,0.04,18,176.079,,25,1,30,,20.5882,,,,,,20.5882,,,,,,,,,,,,,,,,,,,146,,167.138
1419,[99],FA-60 GGBS- 40 B-450 AGG/B-3.85 ALK/B-0.45 T ºC - 25,49.69,23.918,2.87,15.44,3.906,0.132,0,0.57,0,0,0,0,,3.438,,270,180,,,,972,760.5,1732.5,2.8,2.65,144.643,11.50%,30.00%,59%,57.8571,8,0.45,0.4,2.6,3.9,0.3,0,0.04,18,134.759,,25,1,30,,45.7516,,,,,,45.7516,,,,,,,,,,,,,,,,,,,83,,140.122
1428,[99],FA-50 GGBS- 50 B-420 AGG/B-4.23 ALK/B-0.50 T ºC - 25,47.085,23.265,2.525,18.3,4.57,0.11,0,0.625,0,0,0,0,,3.485,,210,210,,,,966,810.6,1776.6,2.8,2.65,150,11.50%,30.00%,59%,60,8,0.5,0.4,2.6,4.2,0.3,0,0.04,16.8,138.63,,25,1,30,,60.419,,,,,,60.419,,,,,,,,,,,,,,,,,,,162,,142.64
1437,[99],FA-70 GGBS- 30 B-360 AGG/B-5.18 ALK/B-0.55 T ºC - 60,52.295,24.571,3.215,12.58,3.242,0.154,0,0.515,0,0,0,0,,3.391,,252,108,,,,1090.8,774,1864.8,2.8,2.65,141.429,11.50%,30.00%,59%,56.5714,8,0.55,0.4,2.6,5.2,0.4,0,0.04,14.4,129.844,1,60,1,30,,33.8369,,,,,,33.8369,,,,,,,,,,,,,,,,,,,115,,150.687
1446,[99],FA-70 GGBS- 30 B-450 AGG/B-3.85 ALK/B-0.60 T ºC - 60,52.295,24.571,3.215,12.58,3.242,0.154,0,0.515,0,0,0,0,,3.391,,315,135,,,,972,760.5,1732.5,2.8,2.65,192.857,11.50%,30.00%,59%,77.1429,8,0.6,0.4,2.6,3.9,0.4,0,0.04,18,176.079,1,60,1,30,,29.5098,,,,,,29.5098,,,,,,,,,,,,,,,,,,,146,,189.596
1455,[99],FA-60 GGBS- 40 B-450 AGG/B-3.85 ALK/B-0.45 T ºC - 60,49.69,23.918,2.87,15.44,3.906,0.132,0,0.57,0,0,0,0,,3.438,,270,180,,,,972,760.5,1732.5,2.8,2.65,144.643,11.50%,30.00%,59%,57.8571,8,0.45,0.4,2.6,3.9,0.3,0,0.04,18,134.759,1,60,1,30,,56.732,,,,,,56.732,,,,,,,,,,,,,,,,,,,83,,162.581
1464,[99],FA-50 GGBS- 50 B-420 AGG/B-4.23 ALK/B-0.50 T ºC - 60,47.085,23.265,2.525,18.3,4.57,0.11,0,0.625,0,0,0,0,,3.485,,210,210,,,,966,810.6,1776.6,2.8,2.65,150,11.50%,30.00%,59%,60,8,0.5,0.4,2.6,4.2,0.3,0,0.04,16.8,138.63,1,60,1,30,,63.5475,,,,,,63.5475,,,,,,,,,,,,,,,,,,,162,,165.098
1507,[99],FA-70 GGBS- 30 B-420 AGG/B-4.23 ALK/B-0.50 T ºC - 25,52.295,24.571,3.215,12.58,3.242,0.154,0,0.515,0,0,0,0,,3.391,,294,126,,,,1010.93,765.67,1776.6,2.8,2.65,150,11.50%,30.00%,59%,60,8,0.5,0.4,2.6,4.2,0.3,0,0.04,16.8,138.63,,25,1,30,,38.16,,,,,,38.16,,,,,,,,,,,,,,,,,,,136,,138.608
1591,[99],FA-70 GGBS- 30 B-360 AGG/B-4.84 ALK/B-0.55 T ºC - 60,52.295,24.571,3.215,12.58,3.242,0.154,0,0.515,0,0,0,0,,3.391,,252,108,,,,973,770,1743,2.8,2.65,113.143,11.50%,30.00%,59%,84.8571,8,0.55,0.75,2.6,4.8,0.4,0,0.04,14.4,132.531,1,60,1,30,30,33.68,26.22,27.94,30,,,33.68,,,,,,,,,,,,,,,,,,,,,157.253
1603,[100],G70R30,51.8738,9.50228,1.53873,25.1978,6.94777,0.402132,0.450203,0.183046,0,0,0,0,0,3.90431,,,276,,,118,1201,647,1848,2.72,2.56,56.0645,15.60%,30.40%,54.00%,101.935,10,0.401015,1.81818,1.9,4.7,0.5,59,0.0203046,8,202.106,1,80,0,24,39.8528,40.93248,,,,,,,,,,,,,48.4663,,,49.816,,,,51.1656,,53.1288,,,,,171.82
1612,[101],G9,43.59,19.185,1.8775,28.005,5.28,0.2325,0.8325,0.085,0.0325,0.1675,0,0,0.09,0.23,,120,360,,,,543.7,787.2,1330.9,2.67,2.61,180,14.70%,29.40%,55.90%,60,4,0.5,0.333333,2.0,2.8,0.6,149.3,0,0,300.32,,24,1,24,18.3819,23.8675,,,18.3819,,,23.8675,24.4048,25.8698,,,,,,,,,,,,,,,,,,659.223,108.772
1621,[101],G18,43.59,19.185,1.8775,28.005,5.28,0.2325,0.8325,0.085,0.0325,0.1675,0,0,0.09,0.23,,120,360,,,,538.7,789.8,1328.5,2.67,2.61,196.4,14.70%,29.40%,55.90%,43.6,6,0.5,0.221996,2.0,2.8,0.6,150.6,0,0,293.5236,,24,1,24,22.2257,26.2869,,,22.2257,,,26.2869,27.8033,21.7961,,,,,,,,,,,,,,,,,,671.077,116.319
1630,[101],G27,43.59,19.185,1.8775,28.005,5.28,0.2325,0.8325,0.085,0.0325,0.1675,0,0,0.09,0.23,,120,360,,,,531.6,779.4,1311,2.67,2.61,180,14.70%,29.40%,55.90%,60,10,0.5,0.333333,2.0,2.7,0.6,163.9,0,0,300.52,,24,1,24,49.3694,54.2342,,,49.3694,,,54.2342,52.973,53.3333,,,,,,,,,,,,,,,,,,622.351,136.2528
1639,[101],G36,43.59,19.185,1.8775,28.005,5.28,0.2325,0.8325,0.085,0.0325,0.1675,0,0,0.09,0.23,,120,360,,,,530.8,778.4,1309.2,2.67,2.61,196.4,14.70%,29.40%,55.90%,43.7,12,0.500208,0.222505,2.0,2.7,0.6,170,0,0,302.5116,,24,1,24,43.0876,49.2549,,,43.0876,,,49.2549,53.6076,56.1507,,,,,,,,,,,,,,,,,,616.021,136.3572
1644,[102],GPC 5 -12M,55.554,9.846,7.488,17.4,2.874,0.58,0,1.216,0,0,0,0,,0.456,,,78,,,312,1032,675,1707,2.64,2.6,150,14.70%,29.40%,55.90%,60,12,0.538462,0.4,2.0,4.4,0.3,0,0,0,115.05,,24,3,23,15.47,22.89,,,15.47,,,22.89,,,,,,,,,,,,,,,,,,,,,121.4016
1648_1,[102],GPC 3 -14M,45.662,11.978,4.204,26.96,6.162,0.44,0,1.148,0,0,0,0,,0.388,,,234,,,156,1032,675,1707,2.64,2.6,150,14.70%,29.40%,55.90%,60,14,0.538462,0.4,2.0,4.4,0.3,0,0,0,110.25,,24,3,23,,,,,,,,,,,,,,,,,,,,,,,,,,,,,138.7056
1653,[102],GPC 2 -16M,40.716,13.044,2.562,31.74,7.806,0.37,0,1.114,0,0,0,0,,0.354,,,312,,,78,1032,675,1707,2.64,2.6,150,14.70%,29.40%,55.90%,60,16,0.538462,0.4,2.0,4.4,0.3,0,0,0,105.45,,24,3,23,25.57,39.95,,,25.57,,,39.95,,,,,,,,,,,,,,,,,,,,,151.9536
1657_1,[102],GPC 6 -16M,60.5,8.78,9.13,12.62,1.23,0.65,0,1.25,0,0,0,0,,0.49,,,,,,390,1032,675,1707,2.64,2.6,150,14.70%,29.40%,55.90%,60,16,0.538462,0.4,2.0,4.4,0.3,0,0,0,105.45,,24,3,23,,,,,,,,,,,,,,,,,,,,,,,,,,,,,135.7296
1666,[103],0.55AAS10M6mmLS,31.32,13.96,15.64,25.79,2.94,2.83,2.93,3.29,0,0,0,0,,1.3,,391,,,,,1273,515,1788,2.64,2.52,108,11.67%,28.66%,60%,108,10,0.55243,1,2.5,4.6,0.3,0,0.009974425,3.9,131.5836,,25,1,24,,22.06064,,,,,,,,,,,,,,,,,,,,27.5758,,,,,21,,139.0864
1675,[103],0.50AAS15M16mmLS,31.32,13.96,15.64,25.79,2.94,2.83,2.93,3.29,0,0,0,0,,1.3,,430,,,,,1246,505,1751,2.64,2.52,108,11.67%,28.66%,60%,108,15,0.502326,1,2.5,4.1,0.3,0,0.01,4.3,110.2236,,25,1,24,,26.42424,,,,,,,,,,,,,,,,,,,,33.0303,,,,,19,,181.1808
1684,[104],3,42.04,33.6,4,12.73,0,0,0,0,0,0,0,0,,0,,427,,,,,1276.80,547,1823.8,2.713,2.66,106.75,14.70%,29.40%,55.90%,42.7,8,0.35,0.4,2.0,4.3,0.2,0,0,0,88.70925,1,80,0,24,,38.17,,,,,,38.17,,,,,,,,,,,,,,,,,,,,,110.35
1693,[104],12,42.04,33.6,4,12.73,0,0,0,0,0,0,0,0,,0,,427,,,,,1276.80,547,1823.8,2.713,2.66,106.75,14.70%,29.40%,55.90%,42.7,12,0.35,0.4,2.0,4.3,0.2,0,0,0,81.87725,1,100,0,24,,44.89,,,,,,44.89,,,,,,,,,,,,,,,,,,,,,136.267
1702,[104],21,42.04,33.6,4,12.73,0,0,0,0,0,0,0,0,,0,,427,,,,,1276.80,547,1823.8,2.713,2.66,76.25,14.70%,29.40%,55.90%,30.5,14,0.25,0.4,2.0,4.3,0.1,0,0,0,56.04375,1,80,0,24,,42.37,,,,,,42.37,,,,,,,,,,,,,,,,,,,,,105.912
1711,[104],pre 2,42.04,33.6,4,12.73,0,0,0,0,0,0,0,0,,0,,427,,,,,1276.80,547,1823.8,2.713,2.66,106.75,14.70%,29.40%,55.90%,42.7,14,0.35,0.4,2.0,4.3,0.2,0,0,0,78.46125,1,60,2,24,,47.58,,,,,,47.58,,,,,,,,,,,,,,,,,,,,,117.142
1720,[106],,50.76,27.32,4.64,5.4,3.72,0.8,4.85,2,1.16,0,0,0,,0,,280,,,,,1309,561,1870,,,126,8.83%,27.64%,64%,84,12,0.75,0.666667,3.1,6.7,0.4,0,0,0,123.7278,1,80,,24,40.8,43.3,,38.1,40.8,41.5,,43.3,45.6,,,,,,,,,,,,,,,,,,,,167.96
1729,[106],,49.2274,26.1356,4.543646,8.32401,3.697104,0.77615,4.641551,2.1431,1.144736,0,0,0,,0,14,280,,,,,1309,561,1870,,,126,8.83%,27.64%,64%,84,12,0.714286,0.666667,3.1,6.4,0.4,0,0,0,123.7278,1,80,,24,49.8,52.6,,45.1,49.8,51.9,,52.6,54.9,,,,,,,,,,,,,,,,,,,,179.72
1738,[107],9,36.74,10.78,0.42,43.34,3.21,0.18,0.17,0.53,0,0,0,0,,0.6,,,400,,,,858,858,1716,2.45,2.62,127.27,13.00%,32.00%,55.00%,72.73,10,0.5,0.571462,2.5,4.3,0.4,30,0.03,12,150.8365,3,30,1,24,55.51,64.4,,,55.51,,,64.4,,,,,,,,,,,,,,,,,,,,,162.75
1747,[107],18,36.74,10.78,0.42,43.34,3.21,0.18,0.17,0.53,0,0,0,0,,0.6,,,400,,,,858,858,1716,2.45,2.62,152.94,13.00%,32.00%,55.00%,47.06,12,0.5,0.307702,2.5,4.3,0.4,30,0.03,12,145.7882,3,90,1,24,45.28,45.79,,,45.28,,,45.79,,,,,,,,,,,,,,,,,,,,,275.038
1756,[107],27,36.74,10.78,0.42,43.34,3.21,0.18,0.17,0.53,0,0,0,0,,0.6,,,400,,,,858,858,1716,2.45,2.62,142.86,13.00%,32.00%,55.00%,57.14,14,0.5,0.399972,2.5,4.3,0.4,30,0.03,12,140.9146,3,60,1,24,37.83,40.58,,,37.83,,,40.58,,,,,,,,,,,,,,,,,,,,,231.678