File: df_clean.csv
Idx_Sample,Ref.,Mixture Code in Ref,SiO2,Al2O3,Fe2O3,CaO,MgO,Na2O,K2O,SO3,TiO2,P2O5,SrO,Mn2O3,LOI,OPC (kg/m3),FA (kg/m3),GGBFS (kg/m3),SF (kg/m3),MK (kg/m3),Other SCM (kg/m3),Coarse aggregate (kg/m3),Fine aggregate (kg in 1m3 mix),Total aggregates (kg in 1m3 mix),Coarse Agg density (kg/m3),Fine Agg density (kg/m3),Total Na2SiO3 (kg in 1m3 of mix),Na2O (l),SiO2 (l),H2O,Total NaOH (kg in 1m3 mix),Concentration (M) NaOH,AL/B,SH/SS,Ms,Ag/B,W/B,Additional water (kg in 1m3 mix),Sp/B,Superplasticizer (kg in 1m3 mix),Total water (in solutions + additional) (kg in 1m3 mix),Initial curing temp (C),Final curing temp (C),7d CS,28d CS,1-d Cubic compressive strength (MPa),3-d Cubic compressive strength (MPa),7-d Cubic compressive strength (MPa),14-d Cubic compressive strength (MPa) ,21-d Cubic compressive strength (MPa),28-d Cubic compressive strength (MPa),56-d Cubic compressive strength (MPa),90-d Cubic compressive strength (MPa) ,180-d Cubic compressive strength (MPa),365-d Cubic compressive strength (MPa) ,1-d Cylindrical compressive strength (MPa),2-d Cylindrical compressive strength (MPa),3-d Cylindrical compressive strength (MPa),4-d Cylindrical compressive strength (MPa),5-d Cylindrical compressive strength (MPa),7-d Cylindrical compressive strength (MPa),12-d Cylindrical compressive strength (MPa),14-d Cylindrical compressive strength (MPa),21-d Cylindrical compressive strength (MPa),28-d Cylindrical compressive strength (MPa),56-d Cylindrical compressive strength (MPa) ,90-d Cylindrical compressive strength (MPa),180-d Cylindrical compressive strength (MPa) ,365-d Cylindrical compressive strength (MPa),Slump (mm),flowtable,"CO2 footprint
(kg emision per 1m3 of samples produced and cured)
[108] and [109] used"
99,[2],FA-II,47.8,24.4,17.4,2.42,1.99,0.31,0.55,0.29,1.328,2.0,0.0,0.0,1.1,,476.0,,,,,1294.0,554.0,1848.0,,,120.0,14.70%,29.40%,56%,48.0,8.0,0.352941,0.4,2.0,3.9,0.2,0.0,0.0,0.0,99.72,60.0,24.0,46.4,48.0,,,,,,,,,,,,,61.0,,,58.0,,64.0,,60.0,61.0,63.0,,,,,105.847
136,[5],GP4,50.3,26.3,13.6,2.27,1.44,0.36,0.55,0.32,0.0,1.58,0.0,0.0,0.6,,444.0,,,,,1140.0,630.0,1770.0,,,111.0,14.73%,29.75%,56%,44.0,14.0,0.349099,0.396396,2.0,4.0,0.2,0.0,0.0137387,6.1,78.8856,60.0,24.0,36.768,38.448,,,,,,,,,,,,,,,,45.96,,,,48.06,,,,,270.0,,131.344
140,[5],GP8,50.3,26.3,13.6,2.27,1.44,0.36,0.55,0.32,0.0,1.58,0.0,0.0,0.6,,408.0,,,,,1292.0,554.0,1846.0,,,103.0,14.73%,29.75%,56%,41.0,14.0,0.352941,0.398058,2.0,4.5,0.2,0.0,0.01495098,6.1,70.0232,60.0,24.0,25.6,28.8,,,,,,,,,,,,,,,,32.0,,,,36.0,,,,,250.0,,125.468
144,[6],G7.5-0.75,49.45,29.61,10.72,3.47,1.3,0.31,0.54,0.27,1.76,0.53,0.0,0.17,1.45,,476.0,,,,,1039.0,784.0,1823.0,,,90.0,14.70%,29.40%,56%,95.0,10.0,0.388655,1.05556,2.0,3.8,0.3,0.0,0.0,0.0,147.31,25.0,24.0,31.28,35.52,,,,,,,,,,,,,,,,39.1,,,,44.4,,46.1,,,300.0,,115.8244
148,[7],,61.18,25.0,6.47,1.34,0.0,0.051,0.0,0.0,0.0,0.0,0.0,0.0,1.63,,400.0,,,,,1056.0,704.0,1760.0,2.64,2.43,171.42,12.65%,29.93%,57%,68.57,12.0,0.599975,0.400012,2.4,4.4,0.3,0.0,0.015,6.0,137.686,60.0,24.0,27.38,29.33,,,27.38,28.11,28.9,29.33,,,,,,,,,,,,,,,,,,,140.0,,168.527
152,[8],P3-7,45.766,16.496,12.728,15.556,0.0,0.0,0.0,1.912,0.0,0.0,0.0,0.0,0.8,,280.0,,,,70.0,990.0,778.0,1768.0,,,181.0,15.36%,33.28%,51%,72.0,14.0,0.722857,0.39779,2.2,5.1,0.4,0.0,0.0,0.0,124.6416,25.0,24.0,22.32256,24.77416,,,,,,,,,,,,,20.8065,,,27.9032,,29.8387,,30.9677,29.8387,25.8065,,,,,151.9792
156,[8],P6-7,45.766,16.496,12.728,15.556,0.0,0.0,0.0,1.912,0.0,0.0,0.0,0.0,0.8,,400.0,,,,100.0,746.0,617.0,1363.0,,,265.0,15.36%,33.28%,51%,106.0,14.0,0.742,0.4,2.2,2.7,0.4,0.0,0.0,0.0,182.744,25.0,24.0,18.32256,19.0968,,,,,,,,,,,,,15.8065,,,22.9032,,26.7742,,23.871,21.9355,19.8387,,,,,217.2168
195,[11],S4,51.3,30.1,4.57,8.73,0.0,0.0,1.56,1.4,0.698,1.6,0.0,0.0,0.0,,400.0,,,,,950.0,850.0,1800.0,2.66,2.61,143.0,14.26%,29.43%,56%,57.0,12.0,0.5,0.398601,2.1,4.5,0.4,0.0,0.07,28.0,174.9633,70.0,24.0,52.72,53.99,51.68,52.33,52.72,,,53.99,,,,,,,,,,,,,,,,,,,,,282.2544
199,[11],S8,51.3,30.1,4.57,8.73,0.0,0.0,1.56,1.4,0.698,1.6,0.0,0.0,0.0,,400.0,,,,,950.0,850.0,1800.0,2.66,2.61,143.0,14.26%,29.43%,56%,57.0,12.0,0.5,0.398601,2.1,4.5,0.4,0.0,0.07,28.0,174.9633,90.0,24.0,49.67,50.42,47.99,48.83,49.67,,,50.42,,,,,,,,,,,,,,,,,,,,,250.171
221,[13],,50.5,26.57,13.77,2.13,1.54,0.45,0.77,0.41,0.0,0.0,0.0,0.0,0.0,,444.0,,,,,1170.0,630.0,1800.0,2.64,2.58,111.0,14.70%,29.40%,55.90%,44.0,14.0,0.349099,0.396396,2.0,4.1,0.2,0.0,0.0137387,6.1,110.869,24.0,24.0,36.72544,38.66488,,,,,,,,,,,,,,,,45.9068,,,,48.3311,,51.0629,,,260.0,,109.0296
225,[13],,50.5,26.57,13.77,2.13,1.54,0.45,0.77,0.41,0.0,0.0,0.0,0.0,0.0,,408.0,,,,,1292.0,554.0,1846.0,2.64,2.58,103.0,14.70%,29.40%,55.90%,41.0,14.0,0.352941,0.398058,2.0,4.5,0.3,0.0,0.01495098,6.1,105.077,24.0,24.0,25.90608,28.80976,,,,,,,,,,,,,,,,32.3826,,,,36.0122,,38.0211,,,260.0,,103.0092
232,[15],GBFS 4.4,32.29,16.25,2.35,42.45,2.87,0.0,0.0,0.0,0.5,0.0,0.0,0.0,1.91,,,400.0,,,,832.0,832.0,1664.0,,,120.0,13.50%,32.40%,54%,68.0,12.5,0.47,0.566667,2.4,4.2,0.6,0.0,0.0,0.0,230.92,25.0,24.0,32.0,49.81136,,,,,,,,,,,,,,,,40.0,,,,62.2642,,75.4717,73.5849,,,,137.0972
236,[15],GBFS 20MK 3.6,35.976,21.926,1.88,33.96,2.296,0.0,0.0,0.0,0.4,0.0,0.0,0.0,1.732,,,320.0,,80.0,,808.0,808.0,1616.0,,,132.0,13.50%,32.40%,54%,78.0,12.5,0.525,0.590909,2.4,4.0,0.6,0.0,0.0,0.0,234.412,25.0,24.0,36.52832,40.75472,,,,,,,,,,,,,,,,45.6604,,,,50.9434,,56.2264,64.9057,,,,173.0018
240,[16],,34.58,13.69,0.44,40.67,7.05,0.48,0.64,0.56,0.0,0.0,0.0,0.0,1.13,,,424.0,,,,1078.0,575.0,1653.0,2.62,2.54,58.1,14.80%,29.20%,56%,16.3,12.4504,0.175472,0.280551,2.0,3.9,0.6,0.0,0.0,0.0,252.718,25.0,24.0,31.6332,38.51,,,,,,,,,,,,,32.3782,,,39.5415,,,,48.1375,,,,,110.0,,66.4437
244,[16],,34.58,13.69,0.44,40.67,7.05,0.48,0.64,0.56,0.0,0.0,0.0,0.0,1.13,,,424.0,,,,1078.0,575.0,1653.0,2.62,2.54,69.7,14.80%,29.20%,56%,19.5,12.481,0.210377,0.27977,2.0,3.9,0.6,0.0,0.0,0.0,256.797,60.0,24.0,45.1576,50.08592,,,,,,,,,,,,,50.8596,,,56.447,,,,62.6074,,,,,95.0,,96.1756
336,[18],GBFS 10MK 3.6,51.7,29.1,4.76,8.84,0.0,0.0,1.6,1.5,0.702,1.7,0.109,0.0,0.0,,350.0,,,,,1200.0,645.0,1845.0,,,103.0,14.73%,29.75%,56%,41.0,8.0,0.411429,0.398058,2.0,5.3,0.3,0.0,0.0,0.0,120.0656,55.0,55.0,33.51816,38.2196,,,,,,,,,,,,,33.8301,,,41.8977,,,,47.7745,48.4998,,,,,,72.4608
340,[18],GBFS 20MK 4.0,52.8292,28.2405,4.6292,8.5976,0.0147,0.0,1.7014,1.482,0.68154,1.7264,0.10573,0.0,0.0,,339.5,,,,10.5,1200.0,645.0,1845.0,,,103.0,14.73%,29.75%,56%,41.0,8.0,0.411429,0.398058,2.0,5.3,0.3,0.0,0.0,0.0,120.0656,65.0,35.0,43.66664,45.66664,,,,,,,,,,,,,54.1667,,,54.5833,,,,57.0833,58.3333,,,,,,98.0855
344,[19],T3,50.5,26.57,13.77,2.13,1.54,0.45,0.77,0.41,0.1,1.0,0.0,0.0,2.1,,462.86,,,,,,0.0,1752.0,,,132.24,14.70%,29.40%,56%,52.9,12.0,0.399991,0.40003,2.0,3.8,0.3,0.0,0.0131789,6.1,126.32,75.0,24.0,39.912,39.712,,,,,,,,,,,,,,,,49.89,,,,49.64,,,,,,,150.044
348,[19],T7,50.5,26.57,13.77,2.13,1.54,0.45,0.77,0.41,0.1,1.0,0.0,0.0,2.1,,424.62,,,,,,0.0,1800.0,,,90.99,14.70%,29.40%,56%,36.4,12.0,0.300009,0.400044,2.0,4.2,0.2,0.0,0.0143658,6.1,89.42141,70.0,24.0,41.832,43.912,,,,,,,,,,,,,,,,52.29,,,,54.89,,,,,,,102.459
362,[20],S2,51.3,30.1,4.57,8.73,0.0,0.0,1.56,1.4,0.0,1.6,0.0,0.0,0.0,,400.0,,,,,950.0,850.0,1800.0,2.66,2.61,143.0,14.70%,29.40%,55.90%,57.0,12.0,0.5,0.398601,2.0,4.5,0.4,0.0,0.04,16.0,167.177,70.0,29.5,44.17,46.86,42.02,42.68,44.17,,,46.86,,,,,,,,,,,,,,,,,,,,640.0,201.9444
378,[22],FA 100,49.34,22.73,16.01,3.09,1.06,2.75,0.0,0.0,0.0,0.0,0.0,0.0,3.0,,400.0,,,,,1209.0,651.0,1860.0,2.68,2.59,129.3,14.70%,29.40%,56%,0.0,12.67,0.32325,0.0,2.0,4.7,0.2,0.0,0.0,0.0,72.2787,23.0,24.0,16.32016,22.008,,,,,,,,,,,,,,,,20.4002,,,,27.51,,28.7012,,,,,77.31755
382,[22],FA 30 SG 70,40.002,15.219,6.063,30.327,4.518,1.343,0.0,0.0,0.0,0.0,0.0,0.0,0.942,,120.0,280.0,,,,1209.0,651.0,1860.0,2.68,2.59,129.3,14.70%,29.40%,56%,0.0,12.67,0.32325,0.0,2.0,4.7,0.2,0.0,0.0,0.0,72.2787,23.0,24.0,34.07568,37.55296,,,,,,,,,,,,,,,,42.5946,,,,46.9412,,49.3141,,,,,90.75755
386,[22],FA 85 SG 15,47.339,21.1205,13.8785,8.9265,1.801,2.4485,0.0,0.0,0.0,0.0,0.0,0.0,0.0,,340.0,60.0,,,,1209.0,651.0,1860.0,2.68,2.59,129.3,14.70%,29.40%,56%,0.0,12.67,0.32325,0.0,2.0,4.7,0.2,0.0,0.0,0.0,72.2787,40.0,24.0,27.85184,32.29632,,,,,,,,,,,,,,,,34.8148,,,,40.3704,,42.2222,,,,,89.82255
390,[22],FA 15 SG 85,38.001,13.6095,3.9315,36.1635,5.259,1.0415,0.0,0.0,0.0,0.0,0.0,0.0,0.0,,60.0,340.0,,,,1209.0,651.0,1860.0,2.68,2.59,129.3,14.70%,29.40%,56%,0.0,12.67,0.32325,0.0,2.0,4.7,0.2,0.0,0.0,0.0,72.2787,40.0,24.0,49.1852,52.14816,,,,,,,,,,,,,,,,61.4815,,,,65.1852,,68.8889,,,,,103.263
394,[22],FA 70 SG 30,45.338,19.511,11.747,14.763,2.542,2.147,0.0,0.0,0.0,0.0,0.0,0.0,0.0,,280.0,120.0,,,,1209.0,651.0,1860.0,2.68,2.59,129.3,14.70%,29.40%,56%,0.0,12.67,0.32325,0.0,2.0,4.7,0.2,0.0,0.0,0.0,72.2787,60.0,24.0,47.69232,54.15384,,,,,,,,,,,,,,,,59.6154,,,,67.6923,,71.5385,,,,,105.536
398,[22],SG 100,36.0,12.0,1.8,42.0,6.0,0.74,0.0,0.0,0.0,0.0,0.0,0.0,0.0,,,400.0,,,,1209.0,651.0,1860.0,2.68,2.59,129.3,14.70%,29.40%,56%,0.0,12.67,0.32325,0.0,2.0,4.7,0.2,0.0,0.0,0.0,72.2787,60.0,24.0,58.7692,65.2308,,,,,,,,,,,,,,,,73.4615,,,,81.5385,,85.0,,,,,118.976
412,[25],M1,51.3,30.1,4.57,8.73,0.0,0.0,1.56,1.4,0.7,1.6,0.0,0.0,0.0,,400.0,,,,,950.0,850.0,1800.0,2.66,2.61,143.0,14.36%,29.43%,56%,57.0,10.0,0.5,0.398601,2.0,4.5,0.4,48.0,0.06,24.0,176.9803,70.0,24.0,43.62,44.87,41.45,42.14,43.62,,,44.87,,,,,,,,,,,,,,,,,,,,695.0,208.252
416,[26],M1,51.3,30.1,4.57,8.73,0.0,0.0,1.56,1.4,0.7,1.6,0.0,0.0,0.0,,400.0,,,,,950.0,850.0,1800.0,2.66,2.61,143.0,14.36%,29.43%,56%,57.0,8.0,0.5,0.398601,2.0,4.5,0.5,48.0,0.06,24.0,181.5403,70.0,24.0,49.25,51.43,46.98,,49.25,,,51.43,,,,,,,,,,,,,,,,,,,,700.0,199.5196
425,[28],M1,60.0,22.7,4.6,4.5,1.0,0.7,2.0,0.5,0.0,0.0,0.0,0.0,4.0,,480.0,,,,,960.0,720.0,1680.0,,,36.0,8.20%,27.00%,65%,204.0,12.2,0.5,5.66667,3.3,3.5,0.3,0.0,0.0,0.0,127.776,90.0,24.0,43.3364,50.5723,,26.9411,43.3364,,,50.5723,58.4406,,,,,,,,,,,,,,,,,,188.0,,297.003
511,[32],Mix 1B,45.2472,24.9564,2.43864,17.4094,5.39462,0.184472,0.718438,0.0,1.20387,0.248175,0.0,0.0,0.820551,,394.0,259.0,,,,858.0,520.0,1378.0,2.79,2.63,108.0,14.92%,29.80%,55%,92.0,8.0,0.306279,0.851852,2.0,2.1,0.3,90.0,0.0,0.0,212.2624,25.0,24.0,46.5,66.259,,,46.5,,,66.259,,,,,,,,,,,,,,,,,,,,,116.916
515,[32],Mix 6B,48.8814,27.7781,2.7594,12.2577,3.68498,0.207267,0.739605,0.0,1.39112,0.314607,0.0,0.0,0.750537,,485.0,148.0,,,,858.0,520.0,1378.0,2.79,2.63,98.0,14.92%,29.80%,55%,82.0,8.0,0.28436,0.836735,2.0,2.2,0.3,104.0,0.0,0.0,213.9344,25.0,24.0,31.75,34.2926,,,31.75,,,34.2926,,,,,,,,,,,,,,,,,,,,,101.78
519,[32],Mix 10B,45.2472,24.9564,2.43864,17.4094,5.39462,0.184472,0.718438,0.0,1.20387,0.248175,0.0,0.0,0.820551,,394.0,259.0,,,,858.0,520.0,1378.0,2.79,2.63,81.0,14.92%,29.80%,55%,69.0,8.0,0.229709,0.851852,2.0,2.1,0.3,125.0,0.0,0.0,216.6968,25.0,24.0,5.25,6.0551,,,5.25,,,6.0551,,,,,,,,,,,,,,,,,,,,,93.1016
549,[34],M5,47.64,25.11,7.884,14.387,1.82,0.387,0.47,1.673,0.0,0.0,0.0,0.0,0.629,,245.0,105.0,,,,1081.0,483.0,1564.0,,,100.0,14.70%,29.40%,55.90%,40.0,14.0,0.4,0.4,2.0,4.5,0.2,0.0,0.0,0.0,73.5,24.0,24.0,13.1,35.73,,,13.1,,,35.73,,,,,,,,,,13.1,,,,35.73,,,,,,,92.8432
587,[37],Mix 2 (S10/A40/R2.5),48.246,26.855,12.211,5.921,1.195,0.312,0.447,0.8,1.441,0.884,0.0,0.0,0.585,,360.0,40.0,,,,1209.0,651.0,1860.0,,,114.3,11.40%,30.70%,58%,45.7,14.0,0.4,0.399825,2.7,4.7,0.2,0.0,0.0,0.0,86.2877,25.0,24.0,17.86048,27.90696,,,,,,,,,,,,,12.5581,,,22.3256,,,,34.8837,38.1395,,,,229.753,,102.605
591,[37],Mix 6 (A45),48.246,26.855,12.211,5.921,1.195,0.312,0.447,0.8,1.441,0.884,0.0,0.0,0.585,,360.0,40.0,,,,1209.0,651.0,1860.0,,,128.5,11.40%,30.70%,58%,51.5,14.0,0.45,0.400778,2.7,4.7,0.2,0.0,0.0,0.0,97.0615,25.0,24.0,16.17584,24.26376,,,,,,,,,,,,,12.3077,,,20.2198,,,,30.3297,33.8462,,,,237.25,,113.9366
595,[38],(no name on Ref),30.97,17.41,1.03,36.77,9.01,0.69,0.46,1.82,0.0,0.0,0.0,0.0,0.0,,,356.36,,,,1284.29,467.12,1751.41,2.62,2.75,96.216,9.00%,28.00%,63.00%,64.144,8.0,0.449994,0.666667,3.1,4.9,0.3,0.0,0.009989898,3.56,106.37,24.0,24.0,50.9703,49.8362,,45.0085,50.9703,45.3743,,49.8362,,,,,,,,,,,,,,,,,,,,,107.575
599,[38],(no name on Ref),30.97,17.41,1.03,36.77,9.01,0.69,0.46,1.82,0.0,0.0,0.0,0.0,0.0,,,356.36,,,,1284.29,467.12,1751.41,2.62,2.75,106.907,9.00%,28.00%,63.00%,53.4533,10.0,0.449994,0.5,3.1,4.9,0.3,0.0,0.009989898,3.56,101.5592,24.0,24.0,52.9231,66.1538,,65.5385,52.9231,56.0,,66.1538,,,,,,,,,,,,,,,,,,,,,113.062
603,[38],(no name on Ref),30.97,17.41,1.03,36.77,9.01,0.69,0.46,1.82,0.0,0.0,0.0,0.0,0.0,,,356.36,,,,1284.29,467.12,1751.41,2.62,2.75,80.18,9.00%,28.00%,63.00%,80.18,14.0,0.449994,1.0,3.1,4.9,0.2,0.0,0.009989898,3.56,87.9286,24.0,24.0,48.0408,48.7669,,39.6596,48.0408,50.8408,,48.7669,,,,,,,,,,,,,,,,,,,,,148.48
646,[42],Mix ???,49.0,31.0,2.8,5.4,2.5,3.76,1.17,0.3,2.1,0.9,0.1,0.1,0.3,,424.8,,,,,1183.2,585.6,1768.8,,,95.04,14.70%,29.40%,56%,63.36,14.0,0.372881,0.666667,2.0,4.2,0.5,0.0,0.112994,48.0,206.6496,25.0,24.0,5.749472,39.42944,,,,,,,,,,,,,1.79342,,,7.18684,,17.1711,32.1447,49.2868,48.8184,,,,165.0,,202.591
662,[44],T3,37.5,6.4,0.51,34.8,8.6,0.38,0.9,2.49,0.0,0.0,0.0,0.0,0.0,,,336.0,,,,,,1896.0,2.68,2.64,28.0,15.00%,39.00%,46%,140.0,4.0,0.5,5.0,2.6,5.6,0.4,0.0,0.0,0.0,148.08,25.0,24.0,45.63,56.67,,,45.63,,,56.67,,,,,,,,,,,,,,,,,,,,,79.5488
666,[44],T7,37.5,6.4,0.51,34.8,8.6,0.38,0.9,2.49,0.0,0.0,0.0,0.0,0.0,,,394.3,,,,,,1848.0,2.68,2.64,26.3,15.00%,39.00%,46%,131.4,8.0,0.399949,4.9962,2.6,4.7,0.4,0.0,0.0,0.0,169.05,25.0,24.0,27.4,38.1,,,27.4,,,38.1,,,,,,,,,,,,,,,,,,,,,119.364
718,[47],P6,51.7628,25.85,10.6618,5.602,0.156,0.3684,0.5076,0.432,0.6674,1.5228,0.0,0.0,0.7592,24.0,376.0,,,,,1209.0,651.0,1860.0,,,114.3,11.40%,30.10%,59%,45.7,14.0,0.4,0.399825,2.6,4.7,0.2,0.0,0.0,0.0,86.9735,25.0,24.0,16.92856,27.42856,,,,,,,,,,,,,12.8571,,,21.1607,,,,34.2857,38.0357,38.3036,,,,,120.749
722,[47],R2.0,50.458,24.95,10.323,8.07,0.26,0.374,0.486,0.52,0.639,1.458,0.0,0.0,0.812,40.0,360.0,,,,,1209.0,651.0,1860.0,,,106.7,11.40%,30.10%,59%,53.3,14.0,0.4,0.499531,2.6,4.7,0.2,0.0,0.0,0.0,85.8715,25.0,24.0,18.1132,31.69808,,,,,,,,,,,,,12.4528,,,22.6415,,,,39.6226,45.6604,46.4151,,,220.0,,139.539
726,[48],Mix 3,50.16,29.758,7.95,2.147,1.276,0.783,2.204,0.0,0.0,0.0,0.0,0.0,4.808,,349.2,,,38.8,,1293.0,554.0,1847.0,2.5,2.6,112.9,11.40%,28.50%,60%,45.2,14.0,0.407474,0.400354,2.5,4.8,0.2,0.0,0.0103093,4.0,90.1409,100.0,24.0,28.9744,32.9487,,25.8974,28.9744,29.8718,30.8974,32.9487,,,,,,,,,,,,,,,,,,,,,264.078
737,[49],D.M14-350-1:1,61.3,29.4,3.27,1.21,0.75,0.73,1.2,0.003,0.01,0.0,0.0,0.0,0.45,,350.0,,,,,1167.0,777.0,1944.0,2.65,2.63,88.39,13.70%,29.40%,57%,88.39,14.0,0.505086,1.0,2.1,5.6,0.3,0.0,0.0,0.0,89.18551,60.0,24.0,27.3,29.2,,20.5,27.3,,,29.2,,,,,,,,,,,,,,,,,,,160.0,,159.799
741,[49],D.M16-350-1:2,61.3,29.4,3.27,1.21,0.75,0.73,1.2,0.003,0.01,0.0,0.0,0.0,0.45,,350.0,,,,,1167.0,777.0,1944.0,2.65,2.63,118.09,13.70%,29.40%,57%,118.09,16.0,0.6748,1.0,2.1,5.6,0.2,0.0,0.0,0.0,76.20858,60.0,24.0,34.3,36.1,13.5,28.1,34.3,,,36.1,,37.5,,,,,,,,,,,,,,,,,150.0,,220.433
745,[49],D.M10-450-1:3,61.3,29.4,3.27,1.21,0.75,0.73,1.2,0.003,0.01,0.0,0.0,0.0,0.45,,450.0,,,,,1051.0,700.0,1751.0,2.65,2.63,169.83,13.70%,29.40%,57%,133.18,10.0,0.673356,0.784196,2.1,3.9,0.2,0.0,0.0,0.0,105.166,60.0,24.0,37.3,38.9,,30.9,37.3,,,38.9,,,,,,,,,,,,,,,,,,,160.0,,195.818
749,[49],D.M16-450-1:1,61.3,29.4,3.27,1.21,0.75,0.73,1.2,0.003,0.01,0.0,0.0,0.0,0.45,,450.0,,,,,1051.0,700.0,1751.0,2.65,2.63,112.58,13.70%,29.40%,57%,88.39,16.0,0.4466,0.785131,2.1,3.9,0.2,0.0,0.0,0.0,82.11431,60.0,24.0,35.1,36.7,,30.1,35.1,,,36.7,,,,,,,,,,,,,,,,,,,165.0,,181.523
753,[49],D.M14-350-1:2,61.3,29.4,3.27,1.21,0.75,0.73,1.2,0.003,0.01,0.0,0.0,0.0,0.45,,350.0,,,,,1167.0,777.0,1944.0,2.65,2.63,118.09,13.70%,29.40%,57%,118.09,14.0,0.6748,1.0,2.1,5.6,0.2,0.0,0.0,0.0,85.65578,60.0,24.0,19.6,24.1,,14.3,19.6,,,24.1,,,,,,,,,,,,,,,,,,,155.0,,187.369
757,[49],D.M16-450-1:2,61.3,29.4,3.27,1.21,0.75,0.73,1.2,0.003,0.01,0.0,0.0,0.0,0.45,,450.0,,,,,1051.0,700.0,1751.0,2.65,2.63,150.52,13.70%,29.40%,57%,118.09,16.0,0.596911,0.784547,2.1,3.9,0.2,0.0,0.0,0.0,76.20858,60.0,24.0,24.6,29.2,,20.4,24.6,,,29.2,,,,,,,,,,,,,,,,,,,150.0,,216.609
764,[50],M07,35.176,23.128,0.944,29.434,7.214,0.572,0.374,1.456,0.0,0.0,0.0,0.0,0.0,,,320.0,,80.0,,1024.0,524.0,1548.0,2.85,2.63,156.25,9.00%,28.00%,63%,62.86,10.0,0.547775,0.402304,3.1,3.9,0.3,0.0,0.0,0.0,136.1535,25.0,24.0,44.5587,54.7001,,,44.5587,,,54.7001,,,,,,,,,,,,,,,,,,,,,154.871
768,[50],M11,37.279,25.987,0.901,25.766,6.316,0.513,0.331,1.274,0.0,0.0,0.0,0.0,0.0,,,280.0,,120.0,,1024.0,524.0,1548.0,2.85,2.63,156.25,9.00%,28.00%,63%,62.86,12.0,0.547775,0.402304,3.1,3.9,0.3,0.0,0.0,0.0,131.1247,25.0,24.0,40.3165,56.5645,,,40.3165,,,56.5645,,,,,,,,,,,,,,,,,,,,,175.621
772,[51],GPR2,43.8238,11.3531,2.3248,27.0931,5.70063,0.0,0.0,0.0,0.0,0.0,0.0,0.0,3.1782,,,315.0,,,79.0,1201.0,647.0,1848.0,2.87,2.6,113.0,14.70%,29.40%,56%,45.0,8.0,0.401015,0.39823,2.0,4.7,0.4,0.0,0.015,5.91,158.313,60.0,24.0,46.32,51.46,,44.72,46.32,,,51.46,,,,,,,,,,,,,,,,,,,,,119.589
776,[52],,37.5,6.4,0.51,34.8,8.6,0.38,0.9,0.0,0.0,0.0,0.0,0.0,0.0,,,336.0,,,,,,1896.0,2.68,2.64,28.0,15.00%,39.00%,46%,140.0,4.0,0.5,5.0,2.6,5.6,0.4,0.0,0.0,0.0,148.08,25.0,24.0,45.63,56.67,,,45.63,,,56.67,,,,,,,,,,,,,,,,,,,,,79.5488
780,[52],,37.5,6.4,0.51,34.8,8.6,0.38,0.9,0.0,0.0,0.0,0.0,0.0,0.0,,,394.3,,,,,,1848.0,2.68,2.64,26.3,15.00%,39.00%,46%,131.4,8.0,0.399949,4.9962,2.6,4.7,0.4,0.0,0.0,0.0,169.05,25.0,24.0,27.4,38.1,,,27.4,,,38.1,,,,,,,,,,,,,,,,,,,,,119.364
784,[53],S/H 1-15M Room,45.23,19.95,13.15,15.51,3.2,0.0,0.0,0.0,0.0,0.0,0.0,0.0,0.0,,414.0,,,,,1091.0,588.0,1679.0,2.65,2.58,104.0,15.32%,32.87%,52%,104.0,15.0,0.502415,1.0,2.1,4.1,0.2,0.0,0.0,0.0,95.4824,25.0,24.0,17.84,36.272,,,,,,,,,,,,,,,,22.3,,,,45.34,,,,,,560.0,166.6512
788,[53],S/H 2-20M Room,45.23,19.95,13.15,15.51,3.2,0.0,0.0,0.0,0.0,0.0,0.0,0.0,0.0,,414.0,,,,,1091.0,588.0,1679.0,2.65,2.58,138.0,15.32%,32.87%,52%,69.0,20.0,0.5,0.5,2.1,4.1,0.2,0.0,0.0,0.0,85.2978,25.0,24.0,18.448,37.352,,,,,,,,,,,,,,,,23.06,,,,46.69,,,,,,530.0,165.1032
792,[53],S/H 2-10M Oven,45.23,19.95,13.15,15.51,3.2,0.0,0.0,0.0,0.0,0.0,0.0,0.0,0.0,,414.0,,,,,1091.0,588.0,1679.0,2.65,2.58,138.0,15.32%,32.87%,52%,69.0,10.0,0.5,0.5,2.1,4.1,0.3,0.0,0.0,0.0,112.8978,60.0,24.0,30.152,32.072,,,,,,,,,,,,,,,,37.69,,,,40.09,,,,,,500.0,134.708
796,[54],M2,50.3,31.51,3.6,5.08,1.529,0.243,0.747,0.252,0.0,0.0,0.0,0.0,5.607,,367.2,40.8,,,,1294.0,554.0,1848.0,,,103.0,8.00%,28.00%,64%,41.0,8.0,0.352941,0.398058,3.5,4.5,0.2,0.0,0.015,6.12,97.472,25.0,24.0,18.67,21.11,,,18.67,,,21.11,,,,,,,,,,,,,,,,,,,,,86.1712
802,[56],F100-0.5A,49.0,31.0,2.8,5.0,2.5,3.8,1.2,0.3,2.1,0.9,0.1,0.1,0.3,,400.0,,,,,1280.0,547.0,1827.0,,,130.53,9.00%,29.00%,62%,69.47,14.0,0.5,0.532215,3.2,4.6,0.3,0.0,0.0,0.0,111.495,25.0,25.0,5.68,15.6,,,,,,,,,,,,,,,,7.1,,,,19.5,29.7,,,,250.0,,131.864
806,[57],FA 50-GGBS50,48.105,22.12,1.792,17.74,3.895,0.0,0.0,1.025,0.25,0.0,0.0,0.0,1.195,,204.5,204.5,,,,1290.0,549.0,1839.0,2.58,2.62,102.0,13.70%,29.40%,57%,41.0,10.0,0.349633,0.401961,2.1,4.5,0.3,0.0,0.0,0.0,137.638,25.0,24.0,40.0,53.5,,,40.0,46.5,,53.5,63.0,,,,,,,,,,,,,,,,,,,,88.4052
810,[58],Mix no.2,58.3727,26.0091,2.22,6.1,1.18455,0.454545,0.909091,0.563636,0.0,0.0,0.0,0.0,2.49091,40.0,400.0,,,,,857.0,857.0,1714.0,2.5,2.67,100.0,11.40%,30.10%,59%,40.0,16.0,0.318182,0.4,2.6,3.9,0.3,0.0,0.0238636,10.5,114.2,50.0,24.0,32.7778,38.0556,,,32.7778,,,38.0556,,,,,,,,,,,,,,,,,,,50.0,,180.275
814,[58],Mix no.6,62.3,28.1,2.1,0.5,1.0,0.5,1.0,0.4,0.0,0.0,0.0,0.0,2.5,0.0,450.0,,,,,830.0,830.0,1660.0,2.5,2.67,112.5,11.40%,30.10%,59%,10.5016,16.0,0.273337,0.0933472,2.6,3.7,0.3,0.0,0.0233333,10.5,123.3125,50.0,24.0,33.0189,38.1929,,,33.0189,,,38.1929,,,,,,,,,,,,,,,,,,,99.7826,,157.243
818,[58],,62.3,28.1,2.1,0.5,1.0,0.5,1.0,0.4,0.0,0.0,0.0,0.0,2.5,0.0,400.0,,,,,875.0,875.0,1750.0,2.5,2.67,100.0,11.40%,30.10%,59%,40.0,16.0,0.35,0.4,2.6,4.4,0.3,0.0,0.02625,10.5,114.2,50.0,24.0,25.2778,27.2937,,,25.2778,,,27.2937,,,,,,,,,,,,,,,,,,,90.0,,146.847
822,[58],Mix no.11,62.3,28.1,2.1,0.5,1.0,0.5,1.0,0.4,0.0,0.0,0.0,0.0,2.5,,400.0,,,,,875.0,875.0,1750.0,2.5,2.67,100.0,11.40%,30.10%,59%,40.0,16.0,0.35,0.4,2.6,4.4,0.3,0.0,0.02625,10.5,114.2,70.0,24.0,35.7548,37.4018,,,35.7548,,,37.4018,,,,,,,,,,,,,,,,,,,171.25,,172.514
826,[59],Mix no.1,62.3,28.1,2.1,0.5,1.0,0.5,1.0,0.4,0.0,0.0,0.0,0.0,2.5,,400.0,,,,,875.0,875.0,1750.0,2.5,2.67,100.0,11.40%,30.10%,59%,40.0,16.0,0.35,0.4,2.6,4.4,0.3,0.0,0.02625,10.5,114.2,50.0,24.0,25.5208,27.526,,,25.5208,,,27.526,,,,,,,,,,,,,,,,,,,90.1478,,146.847
830,[59],Mix no.5,62.3,28.1,2.1,0.5,1.0,0.5,1.0,0.4,0.0,0.0,0.0,0.0,2.5,,400.0,,,,,880.0,880.0,1760.0,2.5,2.67,100.0,11.40%,30.10%,59%,40.0,16.0,0.35,0.4,2.6,4.4,0.3,0.0,0.01875,7.5,112.4,50.0,24.0,27.377,30.3279,,,27.377,,,30.3279,,,,,,,,,,,,,,,,,,,80.0,,141.255
834,[59],Mix no.9,62.3,28.1,2.1,0.5,1.0,0.5,1.0,0.4,0.0,0.0,0.0,0.0,2.5,,400.0,,,,,875.0,875.0,1750.0,2.5,2.67,100.0,11.40%,30.10%,59%,40.0,12.0,0.35,0.4,2.6,4.4,0.3,0.0,0.02625,10.5,120.6,50.0,24.0,16.0047,18.7985,,,16.0047,,,18.7985,,,,,,,,,,,,,,,,,,,100.0,,134.591
838,[59],Mix no.13,62.3,28.1,2.1,0.5,1.0,0.5,1.0,0.4,0.0,0.0,0.0,0.0,2.5,,400.0,,,,,875.0,875.0,1750.0,2.5,2.67,107.5,11.40%,30.10%,59%,32.5,16.0,0.35,0.302326,2.6,4.4,0.3,0.0,0.02625,10.5,115.8875,50.0,24.0,31.9719,35.5177,,,31.9719,,,35.5177,,,,,,,,,,,,,,,,,,,69.8592,,140.355
849,[62],Mix 3,40.17,13.86,15.16,9.7,9.57,3.66,1.53,0.09,0.0,0.0,0.0,0.0,4.75,,,,,,410.0,740.0,1110.0,1850.0,2.44,2.6,103.0,11.00%,29.00%,60%,41.0,14.0,0.35122,0.398058,2.6,4.5,0.6,0.0,0.03,12.3,235.22,25.0,24.0,10.6,13.2,,,10.6,,,13.2,,,,,,,,,,,,,,,,,,,,,113.0524
853,[62],Mix 7,40.17,13.86,15.16,9.7,9.57,3.66,1.53,0.09,0.0,0.0,0.0,0.0,4.75,,,,,,410.0,740.0,1110.0,1850.0,2.44,2.6,103.0,11.00%,29.00%,60%,41.0,10.0,0.35122,0.398058,2.6,4.5,0.5,0.0,0.04,16.4,191.24,25.0,24.0,13.4,16.1,,,13.4,,,16.1,,,,,,,,,,,,,,,,,,,,,108.198
857,[62],Mix 11,40.17,13.86,15.16,9.7,9.57,3.66,1.53,0.09,0.0,0.0,0.0,0.0,4.75,,,,,,410.0,740.0,1110.0,1850.0,2.44,2.6,103.0,11.00%,29.00%,60%,41.0,14.0,0.35122,0.398058,2.6,4.5,0.5,0.0,0.06,24.6,195.6,25.0,24.0,13.3,16.6,,,13.3,,,16.6,,,,,,,,,,,,,,,,,,,,,136.1764
861,[62],Mix 15,40.17,13.86,15.16,9.7,9.57,3.66,1.53,0.09,0.0,0.0,0.0,0.0,4.75,,,,,,410.0,740.0,1110.0,1850.0,2.44,2.6,132.0,11.00%,29.00%,60%,53.0,14.0,0.45122,0.401515,2.6,4.5,0.5,0.0,0.03,12.3,192.9,25.0,24.0,21.1,24.1,,,21.1,,,24.1,,,,,,,,,,,,,,,,,,,,,136.3612
865,[62],Mix 1,40.17,13.86,15.16,9.7,9.57,3.66,1.53,0.09,0.0,0.0,0.0,0.0,4.75,,,,,,410.0,740.0,1110.0,1850.0,2.44,2.6,103.0,11.00%,29.00%,60%,41.0,14.0,0.35122,0.398058,2.6,4.5,0.5,0.0,0.03,12.3,188.22,80.0,24.0,24.6,27.5,,21.5,24.6,,,27.5,,,,,,,,,,,,,,,,,,,,,148.344
869,[62],Mix 15,40.17,13.86,15.16,9.7,9.57,3.66,1.53,0.09,0.0,0.0,0.0,0.0,4.75,,,,,,410.0,740.0,1110.0,1850.0,2.44,2.6,132.0,11.00%,29.00%,60%,53.0,14.0,0.45122,0.401515,2.6,4.5,0.5,0.0,0.03,12.3,192.9,80.0,24.0,27.8,30.8,,23.4,27.8,,,30.8,,,,,,,,,,,,,,,,,,,,,171.653
874,[63],FA 00-GGBS100,30.61,16.24,0.584,34.48,6.79,0.0,0.0,1.85,0.0,0.0,0.0,0.0,2.1,,,409.0,,,,1293.0,554.0,1847.0,2.58,2.62,102.0,13.70%,29.40%,57%,41.0,10.0,0.349633,0.401961,2.1,4.5,0.3,55.0,0.0,0.0,137.638,25.0,24.0,52.4,58.6,,,52.4,56.2,,58.6,83.0,,,,,,,,,,,,,,,,,,,,98.2596
878,[64],,32.62,31.23,8.48,17.12,3.49,0.91,0.1,0.0,1.65,0.0,0.0,0.0,0.93,,414.0,,,,,1260.0,540.0,1800.0,2.69,2.6,133.0,14.70%,29.40%,56%,53.0,12.0,0.449275,0.398496,2.0,4.3,0.3,14.0,0.0140097,5.8,119.387,25.0,24.0,17.8322,24.3357,,,17.8322,24.3357,,24.3357,21.8182,,,,,,,,,,,,,,,,,,90.0,,117.7976
909,[67],GPC-HC-2,58.772,23.615,4.99,6.427,1.191,0.441,1.284,0.487,1.157,0.191,0.0,0.124,1.323,,271.6,38.8,,77.6,,1221.2,620.8,1842.0,2.65,2.8,138.7,14.70%,29.40%,56%,55.3,12.0,0.5,0.398702,2.0,4.7,0.3,13.3,0.0,0.0,119.5893,60.0,24.0,29.76,30.24,,,,,,,,,,,29.7,,36.3,,,37.2,,,,37.8,,,,,,,149.547
913,[67],GPC-HC-6,58.772,23.615,4.99,6.427,1.191,0.441,1.284,0.487,1.157,0.191,0.0,0.124,1.323,,271.6,38.8,,77.6,,1221.2,620.8,1842.0,2.65,2.8,138.7,14.70%,29.40%,56%,55.3,12.0,0.5,0.398702,2.0,4.7,0.3,13.3,0.0,0.0,119.5893,75.0,24.0,44.16,43.12,,,,,,,,,,,50.5,,52.2,,,55.2,,,,53.9,,,,,,,154.359
917,[67],GPC-HC-10,58.772,23.615,4.99,6.427,1.191,0.441,1.284,0.487,1.157,0.191,0.0,0.124,1.323,,271.6,38.8,,77.6,,1221.2,620.8,1842.0,2.65,2.8,138.7,14.70%,29.40%,56%,55.3,12.0,0.5,0.398702,2.0,4.7,0.3,13.3,0.0,0.0,119.5893,90.0,24.0,44.8,46.88,,,,,,,,,,,54.1,,57.2,,,56.0,,,,58.6,,,,,,,159.172
934,[69],GP1,52.8485,27.4015,8.425,2.2765,1.3625,0.818,2.335,0.293,0.0,0.0,0.0,0.0,3.7055,,380.0,,20.0,,,1293.0,554.0,1847.0,2.5,2.6,112.9,11.40%,28.50%,60%,45.2,14.0,0.39525,0.400354,2.5,4.6,0.2,0.0,0.01,4.0,90.1409,100.0,24.0,44.1737,46.4595,,43.7608,44.1737,44.7745,44.648,46.4595,,,,,,,,,,,,,,,,,,,30.0,,251.677
952,[72],SiO3/OH = 0.5 60C AL/GGBFS = 0.25,34.01,16.62,1.71,34.85,9.11,0.48,0.46,1.55,0.69,0.04,0.0,0.0,0.25,,,560.0,,,,1148.0,668.0,1816.0,2.74,2.74,108.0,23.30%,20.80%,56%,32.0,14.0,0.25,0.296296,0.9,3.2,0.1,0.0,0.0,0.0,74.452,60.0,24.0,26.84,30.27,,18.65,26.84,,,30.27,36.45,,,,,,,,,,,,,,,,,,,,116.648
956,[72],SiO3/OH = 1.5 60C AL/GGBFS = 0.30,34.01,16.62,1.71,34.85,9.11,0.48,0.46,1.55,0.69,0.04,0.0,0.0,0.3,,,560.0,,,,1148.0,668.0,1816.0,2.74,2.74,89.0,23.30%,20.80%,56%,69.0,14.0,0.282143,0.775281,0.9,3.2,0.1,0.0,0.0,0.0,80.111,60.0,24.0,33.87,34.42,,30.23,33.87,,,34.42,35.95,,,,,,,,,,,,,,,,,,,,149.487
960,[72],SiO3/OH = 2.5 60C AL/GGBFS = 0.35,34.01,16.62,1.71,34.85,9.11,0.48,0.46,1.55,0.69,0.04,0.0,0.0,0.35,,,560.0,,,,1148.0,668.0,1816.0,2.74,2.74,75.0,23.30%,20.80%,56%,121.0,14.0,0.35,1.61333,0.9,3.2,0.2,0.0,0.0,0.0,95.165,60.0,24.0,22.8,24.17,,19.44,22.8,,,24.17,32.64,,,,,,,,,,,,,,,,,,,,200.212
964,[72],SiO3/OH = 0.5 80C AL/GGBFS = 0.30,34.01,16.62,1.71,34.85,9.11,0.48,0.46,1.55,0.69,0.04,0.0,0.0,0.25,,,560.0,,,,1148.0,668.0,1816.0,2.74,2.74,82.0,23.30%,20.80%,56%,58.0,14.0,0.25,0.707317,0.9,3.2,0.1,0.0,0.0,0.0,71.358,80.0,24.0,31.33,32.98,,28.1,31.33,,,32.98,51.07,,,,,,,,,,,,,,,,,,,,138.379
968,[72],SiO3/OH = 1.5 80C AL/GGBFS = 0.35,34.01,16.62,1.71,34.85,9.11,0.48,0.46,1.55,0.69,0.04,0.0,0.0,0.3,,,560.0,,,,1148.0,668.0,1816.0,2.74,2.74,64.0,23.30%,20.80%,56%,104.0,14.0,0.3,1.625,0.9,3.2,0.1,0.0,0.0,0.0,81.536,80.0,24.0,29.84,39.05,,27.26,29.84,,,39.05,44.71,,,,,,,,,,,,,,,,,,,,181.229
972,[72],SiO3/OH = 2.5 100C AL/GGBFS = 0.25,34.01,16.62,1.71,34.85,9.11,0.48,0.46,1.55,0.69,0.04,0.0,0.0,0.35,,,560.0,,,,1148.0,668.0,1816.0,2.74,2.74,151.0,23.30%,20.80%,56%,45.0,14.0,0.35,0.298013,0.9,3.2,0.2,0.0,0.0,0.0,104.209,100.0,24.0,35.81,35.9,,31.67,35.81,,,35.9,42.0,,,,,,,,,,,,,,,,,,,,152.486
976,[72],SiO3/OH = 0.5 100C AL/GGBFS = 0.35,34.01,16.62,1.71,34.85,9.11,0.48,0.46,1.55,0.69,0.04,0.0,0.0,0.25,,,560.0,,,,1148.0,668.0,1816.0,2.74,2.74,54.0,23.30%,20.80%,56%,84.0,14.0,0.246429,1.55556,0.9,3.2,0.1,0.0,0.0,0.0,67.146,100.0,24.0,30.26,32.64,,21.75,30.26,,,32.64,40.98,,,,,,,,,,,,,,,,,,,,159.39
980,[73],G150,40.58,15.835,3.73,31.275,1.69,0.185,0.745,1.505,0.92,0.27,0.0,0.0,0.0,150.0,150.0,,,,,1171.48,780.99,1952.47,,,58.93,16.27%,34.64%,49%,23.57,10.0,0.275,0.399966,2.1,6.5,0.5,100.38,0.0,0.0,143.451,100.0,40.0,31.0871,35.2059,,,31.0871,,,35.2059,,,,,,,,,,,,,,,,,,,,,223.366
984,[73],G250,40.58,15.835,3.73,31.275,1.69,0.185,0.745,1.505,0.92,0.27,0.0,0.0,0.0,150.0,150.0,,,,,1172.64,781.76,1954.4,,,48.21,16.27%,34.64%,49%,19.29,10.0,0.225,0.400124,2.1,6.5,0.5,109.4,0.0,0.0,144.64,100.0,40.0,26.0857,29.6161,,,26.0857,,,29.6161,,,,,,,,,,,,,,,,,,,,,216.238
988,[73],G350,40.58,15.835,3.73,31.275,1.69,0.185,0.745,1.505,0.92,0.27,0.0,0.0,0.0,175.0,175.0,,,,,1098.54,732.36,1830.9,,,68.75,16.27%,34.64%,49%,27.5,10.0,0.275,0.4,2.1,5.2,0.5,117.11,0.0,0.0,167.359,100.0,40.0,32.8523,37.1672,,,32.8523,,,37.1672,,,,,,,,,,,,,,,,,,,,,250.428
992,[73],G450,40.58,15.835,3.73,31.275,1.69,0.185,0.745,1.505,0.92,0.27,0.0,0.0,0.0,175.0,175.0,,,,,1099.9,733.26,1833.16,,,56.25,16.27%,34.64%,49%,22.5,10.0,0.225,0.4,2.1,5.2,0.5,127.64,0.0,0.0,168.753,100.0,40.0,28.5374,32.2639,,,28.5374,,,32.2639,,,,,,,,,,,,,,,,,,,,,242.109
1010,[76],GPR1 60C,37.4573,12.7237,2.56541,30.4637,6.37373,0.0,0.0,0.0,0.0,0.0,0.0,0.0,0.0,,,355.0,,,39.0,1201.0,647.0,1848.0,2.87,2.6,113.0,14.70%,29.40%,56%,45.0,8.0,0.401015,0.39823,2.0,4.7,0.4,59.0,0.015,5.91,156.313,60.0,24.0,67.6,70.72,,62.3,67.6,,,70.72,,,,,,,,,,,,,,,,,,,,,121.669
1014,[76],GPR1 90C,37.4573,12.7237,2.56541,30.4637,6.37373,0.0,0.0,0.0,0.0,0.0,0.0,0.0,0.0,,,355.0,,,39.0,1201.0,647.0,1848.0,2.87,2.6,113.0,14.70%,29.40%,56%,45.0,8.0,0.401015,0.39823,2.0,4.7,0.4,59.0,0.015,5.91,156.313,90.0,24.0,67.45,72.34,,64.53,67.45,,,72.34,,,,,,,,,,,,,,,,,,,,,134.503
1018,[76],GPR1 25C,37.4573,12.7237,2.56541,30.4637,6.37373,0.0,0.0,0.0,0.0,0.0,0.0,0.0,0.0,,,355.0,,,39.0,1201.0,647.0,1848.0,2.87,2.6,113.0,14.70%,29.40%,56%,45.0,8.0,0.401015,0.39823,2.0,4.7,0.4,59.0,0.015,5.91,156.313,25.0,24.0,44.25,48.44,,42.38,44.25,,,48.44,,50.0,,,,,,,,,,,,,,,,,,,106.6972
1022,[77],C3,39.82,18.004,5.634,18.832,3.574,0.954,2.826,1.244,0.898,0.102,0.052,0.234,3.102,,270.0,180.0,,,,1030.0,670.0,1700.0,2.77,2.69,106.0,12.80%,25.50%,62%,87.0,10.0,0.428889,0.820755,2.0,3.8,0.4,65.0,0.0,0.0,182.602,25.0,24.0,49.0,70.4,14.6,,49.0,,,70.4,,,,,,,,,,,,,,,,,,,280.0,,123.402
1027,[77],C8,39.82,18.004,5.634,18.832,3.574,0.954,2.826,1.244,0.898,0.102,0.052,0.234,3.102,,270.0,180.0,,,,1050.0,690.0,1740.0,2.77,2.69,106.0,12.80%,25.50%,62%,87.0,10.0,0.428889,0.820755,2.0,3.9,0.4,50.0,0.0,0.0,167.602,25.0,24.0,47.0,72.3,15.3,,47.0,,,72.3,,,,,,,,,,,,,,,,,,,190.0,,123.594
1031,[77],C14,39.8292,18.01,5.63865,18.8101,3.57103,0.953915,2.82767,1.24354,0.898201,0.10209,0.0519841,0.233757,3.10262,,227.0,151.0,,,,1111.0,721.0,1832.0,2.77,2.69,89.0,12.80%,25.50%,62%,73.0,10.0,0.428571,0.820225,2.0,4.8,0.4,66.0,0.0,0.0,164.713,25.0,24.0,38.4,60.9,8.7,,38.4,,,60.9,,,,,,,,,,,,,,,,,,,230.0,,105.5116
1035,[77],C18,39.82,18.004,5.634,18.832,3.574,0.954,2.826,1.244,0.898,0.102,0.052,0.234,3.102,,213.0,142.0,,,,1145.0,742.0,1887.0,2.77,2.69,84.0,12.80%,25.50%,62%,69.0,10.0,0.430986,0.821429,2.0,5.3,0.4,62.0,0.0,0.0,155.228,25.0,24.0,37.4,56.3,9.8,,37.4,,,56.3,,,,,,,,,,,,,,,,,,,150.0,,100.3876
1043,[79],TM1,32.4,14.96,0.83,40.7,5.99,0.42,0.29,2.74,0.84,0.38,0.0,0.4,0.0,,,400.0,,,,1208.0,650.0,1858.0,,,84.0,14.70%,29.40%,56%,56.0,10.0,0.35,0.666667,2.0,4.6,0.4,48.0,0.05,20.0,140.556,25.0,24.0,32.712,37.4,,,,,,,,,,,,,,,,40.89,,,,46.75,,,,,,,140.4544
1047,[79],TM5,32.4,14.96,0.83,40.7,5.99,0.42,0.29,2.74,0.84,0.38,0.0,0.4,0.0,,,450.0,,,,1132.0,609.0,1741.0,,,145.0,14.70%,29.40%,56%,58.0,10.0,0.451111,0.4,2.0,3.9,0.4,54.0,0.05,22.5,183.355,25.0,24.0,33.12,43.392,,,,,,,,,,,,,,,,41.4,,,,54.24,,,,,,,170.6848
1051,[79],TM9,32.4,14.96,0.83,40.7,5.99,0.42,0.29,2.74,0.84,0.38,0.0,0.4,0.0,,,500.0,,,,1050.0,565.0,1615.0,,,183.0,14.70%,29.40%,56%,92.0,10.0,0.55,0.502732,2.0,3.2,0.5,60.0,0.05,25.0,232.497,25.0,24.0,26.088,27.52,,,,,,,,,,,,,,,,32.61,,,,34.4,,,,,,,217.104
1193,[83],F85C15,49.093,25.0445,7.8625,13.0095,1.711,0.535,1.4995,0.816,0.0,0.0,0.0,0.0,0.0,46.5,263.5,,,,,1204.0,649.0,1853.0,2.65,2.64,122.0,16.20%,34.72%,49%,48.8571,10.0,0.551152,0.400468,2.1,6.0,0.3,0.0,0.02,6.2,92.982,80.0,24.0,58.5124,60.4959,,57.7686,58.5124,,,60.4959,,61.7355,,,,,,,,,,,,,,,,,59.0,,177.301
1198,[84],G90C10,49.896,25.57,8.266,10.253,1.754,0.55,1.543,1.133,0.0,0.0,0.0,0.0,1.035,31.0,279.0,,,,,1204.0,649.0,1853.0,2.7,2.54,114.0,16.20%,34.72%,49%,57.0,10.0,0.551613,0.5,2.1,6.0,0.3,0.0,0.02,6.2,93.8712,80.0,24.0,52.314,54.5455,,50.5785,52.314,,,54.5455,,57.7686,,60.0,,,,,,,,,,,,,,,,,167.7
1232,[89],10C2,46.78,22.52,9.15,2.24,1.33,0.89,4.09,0.9,1.05,0.17,0.0,0.0,3.57,,380.0,,,,,1111.0,721.0,1832.0,2.7,2.6,89.0,12.80%,25.50%,62%,73.0,7.5,0.426316,0.820225,2.0,4.8,0.3,0.0,0.0,0.0,106.013,70.0,65.0,15.4909,16.6001,11.0445,,15.4909,,,16.6001,,,,,,,,,,,,,,,,,,,143.7185,,892.7921
1236,[89],10C6,46.78,22.52,9.15,2.24,1.33,0.89,4.09,0.9,1.05,0.17,0.0,0.0,3.57,,348.0,,,,,1145.0,742.0,1887.0,2.7,2.6,82.0,12.80%,25.50%,62%,67.0,7.5,0.428161,0.817073,2.0,5.4,0.3,0.0,0.0,0.0,97.494,70.0,65.0,13.2147,11.7314,7.65918,,13.2147,,,11.7314,,,,,,,,,,,,,,,,,,,70.706,,886.9611
1240,[89],8C1,43.3175,20.2734,7.40086,10.4942,2.44635,0.921839,3.46118,1.07113,0.974383,0.136171,0.0,0.0,3.33718,,318.0,79.0,,,,1111.0,721.0,1832.0,2.7,2.6,93.0,12.80%,25.50%,62%,77.0,7.5,0.428212,0.827957,2.0,4.6,0.3,0.0,0.0,0.0,111.281,20.0,24.0,24.0438,38.8586,8.11786,,24.0438,,,38.8586,,,,,,,,,,,,,,,,,,,34.6022,,91.8901
1244,[89],8C5,43.2904,20.2558,7.38717,10.5588,2.45508,0.922088,3.45626,1.07247,0.973791,0.135907,0.0,0.0,3.33536,,291.0,73.0,,,,1145.0,742.0,1887.0,2.7,2.6,85.0,12.80%,25.50%,62%,70.0,7.5,0.425824,0.823529,2.0,5.2,0.3,0.0,0.0,0.0,101.445,20.0,24.0,23.8589,40.5231,6.44899,,23.8589,,,40.5231,,,,,,,,,,,,,,,,,,,59.7318,,84.8326
1248,[89],8C9,43.3099,20.2684,7.39701,10.5124,2.4488,0.921909,3.4598,1.07151,0.974217,0.136097,0.0,0.0,3.33667,,281.0,70.0,,,,1160.0,753.0,1913.0,2.7,2.6,83.0,12.80%,25.50%,62%,68.0,7.5,0.430199,0.819277,2.0,5.5,0.3,0.0,0.0,0.0,98.811,20.0,24.0,22.2329,38.1614,6.30955,,22.2329,,,38.1614,,,,,,,,,,,,,,,,,,,19.917,,82.8924
1252,[89],6C2,39.8291,18.0099,5.63859,18.8103,3.57107,0.953916,2.82765,1.24355,0.898198,0.102089,0.0,0.0,3.10261,,230.0,153.0,,,,1111.0,721.0,1832.0,2.7,2.6,90.0,12.80%,25.50%,62%,74.0,7.5,0.428198,0.822222,2.0,4.8,0.3,0.0,0.0,0.0,107.33,20.0,24.0,36.3328,57.9994,6.75086,,36.3328,,,57.9994,,,,,,,,,,,,,,,,,,,213.101,,92.5826
1256,[89],6C6,39.82,18.004,5.634,18.832,3.574,0.954,2.826,1.244,0.898,0.102,0.0,0.0,3.102,,216.0,144.0,,,,1145.0,742.0,1887.0,2.7,2.6,85.0,12.80%,25.50%,62%,69.0,7.5,0.427778,0.811765,2.0,5.2,0.3,0.0,0.0,0.0,100.745,20.0,24.0,41.2015,55.7848,8.70148,,41.2015,,,55.7848,,,,,,,,,,,,,,,,,,,99.2691,,87.6501
1260,[89],6C10,39.82,18.004,5.634,18.832,3.574,0.954,2.826,1.244,0.898,0.102,0.0,0.0,3.102,,198.0,132.0,,,,1160.0,753.0,1913.0,2.7,2.6,78.0,12.80%,25.50%,62%,64.0,7.5,0.430303,0.820513,2.0,5.8,0.3,0.0,0.0,0.0,92.926,20.0,24.0,21.9692,36.1373,1.13584,,21.9692,,,36.1373,,,,,,,,,,,,,,,,,,,149.242,,81.6864
1264,[89],3C4,34.5902,14.6106,2.99203,31.2994,5.26017,1.00209,1.87621,1.50249,0.783785,0.050904,0.0,0.0,2.75034,,106.0,248.0,,,,1145.0,742.0,1887.0,2.7,2.6,83.0,12.80%,25.50%,62%,68.0,7.5,0.426554,0.819277,2.0,5.3,0.3,0.0,0.0,0.0,98.811,20.0,24.0,56.4726,70.5511,32.0282,,56.4726,,,70.5511,,,,,,,,,,,,,,,,,,,31.2841,,91.3236
1268,[89],3C8,34.6107,14.6239,3.00239,31.2506,5.25356,1.0019,1.87994,1.50147,0.784233,0.0511043,0.0,0.0,2.75172,,98.0,228.0,,,,1160.0,753.0,1913.0,2.7,2.6,77.0,12.80%,25.50%,62%,63.0,7.5,0.429448,0.818182,2.0,5.9,0.3,0.0,0.0,0.0,91.609,20.0,24.0,55.0228,66.8746,21.685,,55.0228,,,66.8746,,,,,,,,,,,,,,,,,,,64.7275,,85.3439
1299,[92],Batch C ambient,52.4246,23.5718,2.09027,13.6066,3.18016,0.0,0.0,0.8212902,0.311728,0.0,0.0,0.0,1.25428,,252.5,152.5,,,,1283.08,587.3,1870.38,2.58,2.62,70.88,14.70%,29.40%,55.90%,70.88,16.0,0.350025,1.0,2.0,4.6,0.2,0.0,0.0,0.0,65.13872,24.0,24.0,33.12,39.52,,29.65,33.12,,,39.52,,,,,,,,,,,,,,,,,,,,,130.305
1303,[92],Batch B oven,56.8525,25.06,2.396,9.37,2.4475,0.0,0.0,0.6125,0.375,0.0,0.0,0.0,0.7425,,303.75,101.25,,,,1283.08,587.3,1870.38,2.58,2.62,70.88,14.70%,29.40%,55.90%,70.88,20.0,0.350025,1.0,2.0,4.6,0.1,0.0,0.0,0.0,53.79792,60.0,24.0,38.33,41.04,,26.6,38.33,,,41.04,,,,,,,,,,,,,,,,,,,,,172.021
1309,[94],FA0-20,74.18,9.44,4.22,5.53,2.48,0.32,1.46,0.0,0.96,0.0,0.0,0.0,0.82,,459.0,,,,,1172.0,539.0,1711.0,,,142.857,15.40%,38.50%,46%,57.1429,10.0,0.43573,0.4,2.5,3.7,0.2,0.0,0.0,0.0,100.143,20.0,24.0,7.457624,11.38984,,,,,,,,,,,,,3.38983,,,9.32203,,13.2203,,14.2373,16.1017,,,,200.0,,105.2488
1313,[94],FA10-20,68.4595,8.72288,4.03672,11.51,2.52722,0.288,1.35774,0.455581,0.940538,0.0,0.0,0.0,1.1708,45.9,413.1,,,,,1172.0,539.0,1711.0,,,142.857,15.40%,38.50%,46%,57.1429,10.0,0.43573,0.4,2.5,3.7,0.2,0.0,0.0,0.0,100.143,20.0,24.0,13.42376,20.61016,,,,,,,,,,,,,8.47458,,,16.7797,,23.0508,,25.7627,33.3898,,,,120.0,,143.6212
1339,[96],8M3,65.6,26.53,5.49,0.31,0.76,0.36,0.23,0.31,0.0,0.0,0.0,0.0,0.41,,364.0,,,,,1311.0,562.0,1873.0,2.78,2.73,117.0,16.95%,35.06%,47.99%,46.0,8.0,0.447802,0.393162,2.1,5.1,0.3,0.0,0.02,7.28,91.7963,60.0,27.0,29.5457,32.9878,,23.1685,29.5457,,,32.9878,,,,,,,,,,,,,,,,,,,80.0,,116.9
1343,[96],10M2,65.6,26.53,5.49,0.31,0.76,0.36,0.23,0.31,0.0,0.0,0.0,0.0,0.41,,397.0,,,,,1277.0,547.0,1824.0,2.78,2.73,128.0,16.95%,35.06%,47.99%,51.0,10.0,0.450882,0.3984375,2.1,4.6,0.2,0.0,0.02,7.94,96.7912,60.0,27.0,32.0528,35.6706,,26.0619,32.0528,,,35.6706,,,,,,,,,,,,,,,,,,,109.841,,132.875
1347,[96],12M1,65.6,26.53,5.49,0.31,0.76,0.36,0.23,0.31,0.0,0.0,0.0,0.0,0.41,,430.0,,,,,1243.0,533.0,1776.0,2.78,2.73,138.0,16.95%,35.06%,47.99%,55.0,12.0,0.448837,0.398551,2.1,4.1,0.2,0.0,0.02,8.6,99.9862,60.0,27.0,31.035,36.1281,,25.0408,31.035,,,36.1281,,,,,,,,,,,,,,,,,,,114.921,,149.107
1351,[96],12M5,65.6,26.53,5.49,0.31,0.76,0.36,0.23,0.31,0.0,0.0,0.0,0.0,0.41,,298.0,,,,,1377.0,590.0,1967.0,2.78,2.73,96.0,16.95%,35.06%,47.99%,158.0,12.0,0.852349,1.64583,2.1,6.6,0.4,0.0,0.02,5.96,131.8064,60.0,27.0,29.1515,32.21,,22.8165,29.1515,,,32.21,,,,,,,,,,,,,,,,,,,44.7619,,224.09
1355,[96],14M4,65.6,26.53,5.49,0.31,0.76,0.36,0.23,0.31,0.0,0.0,0.0,0.0,0.41,,331.0,,,,,1344.0,576.0,1920.0,2.78,2.73,106.0,16.95%,35.06%,47.99%,42.0,14.0,0.44713,0.396226,2.1,5.8,0.2,0.0,0.02,6.62,73.3214,60.0,27.0,33.0337,36.5169,,26.5169,33.0337,,,36.5169,,,,,,,,,,,,,,,,,,,74.9206,,128.645
1359,[96],8M23,65.6,26.53,5.49,0.31,0.76,0.36,0.23,0.31,0.0,0.0,0.0,0.0,0.41,,397.0,,,,,1277.0,547.0,1824.0,2.78,2.73,128.0,16.95%,35.06%,47.99%,51.0,8.0,0.450882,0.3984375,2.1,4.6,0.3,0.0,0.02,7.94,100.8712,80.0,27.0,31.683,32.7567,,30.1794,31.683,,,32.7567,,,,,,,,,,,,,,,,,,,109.841,,137.895
1363,[96],10M22,65.6,26.53,5.49,0.31,0.76,0.36,0.23,0.31,0.0,0.0,0.0,0.0,0.41,,397.0,,,,,1277.0,547.0,1824.0,2.78,2.73,128.0,16.95%,35.06%,47.99%,51.0,10.0,0.450882,0.3984375,2.1,4.6,0.2,0.0,0.02,7.94,96.7912,70.0,27.0,28.0126,32.2257,,29.1037,28.0126,,,32.2257,,,,,,,,,,,,,,,,,,,109.841,,139.2914
1367,[96],12M21,65.6,26.53,5.49,0.31,0.76,0.36,0.23,0.31,0.0,0.0,0.0,0.0,0.41,,397.0,,,,,1277.0,547.0,1824.0,2.78,2.73,128.0,16.95%,35.06%,47.99%,51.0,12.0,0.450882,0.3984375,2.1,4.6,0.2,0.0,0.02,7.94,92.7112,60.0,27.0,27.7987,29.434,,27.2956,27.7987,,,29.434,,,,,,,,,,,,,,,,,,,109.841,,140.688
1371,[96],12M25,65.6,26.53,5.49,0.31,0.76,0.36,0.23,0.31,0.0,0.0,0.0,0.0,0.41,,397.0,,,,,1277.0,547.0,1824.0,2.78,2.73,128.0,16.95%,35.06%,47.99%,51.0,12.0,0.450882,0.3984375,2.1,4.6,0.2,0.0,0.02,7.94,92.7112,100.0,27.0,42.5157,40.8805,,41.0063,42.5157,,,40.8805,,,,,,,,,,,,,,,,,,,109.841,,166.3546
1375,[96],14M24,65.6,26.53,5.49,0.31,0.76,0.36,0.23,0.31,0.0,0.0,0.0,0.0,0.41,,397.0,,,,,1277.0,547.0,1824.0,2.78,2.73,128.0,16.95%,35.06%,47.99%,51.0,14.0,0.450882,0.3984375,2.1,4.6,0.2,0.0,0.02,7.94,88.6312,90.0,27.0,38.854,39.7682,,34.1682,38.854,,,39.7682,,,,,,,,,,,,,,,,,,,109.841,,167.751
1384,[97],SFGC-8,38.5,19.625,0.0,29.43,5.4425,0.2725,0.6725,1.95,1.3525,0.08,0.0,0.0,0.0,,100.0,300.0,,,,1068.0,712.0,1780.0,2.53,2.34,74.0,8.90%,32.10%,59.00%,,12.0,0.185,0.0,3.6,4.5,0.4,133.0,0.0,0.0,176.66,24.0,24.0,25.6,41.68,,,,,,,,,,,,,28.0,,,32.0,,,,52.1,,65.0,,,,,74.164
1388,[98],A20,49.946,23.848,1.402,10.44,9.13,0.658,2.166,0.812,0.846,0.0,0.0,0.0,0.0,,320.0,80.0,,,,1203.0,646.0,1849.0,,,107.0,15.36%,30.71%,54%,53.0,10.0,0.4,0.495327,2.0,4.6,0.2,0.0,0.01,4.0,91.9051,25.0,20.0,26.5693,41.8978,12.5182,,26.5693,31.4234,,41.8978,46.7518,,,,,,,,,,,,,,,,,,191.149,132.295,100.9532
1392,[98],B20,49.946,23.848,1.402,10.44,9.13,0.658,2.166,0.812,0.846,0.0,0.0,0.0,0.0,,320.0,80.0,,,,1203.0,648.0,1851.0,,,107.0,15.36%,30.71%,54%,53.0,12.0,0.4,0.495327,2.0,4.6,0.2,0.0,0.01,4.0,87.6651,25.0,20.0,26.9136,45.1852,13.5802,,26.9136,38.2716,,45.1852,,,,,,,,,,,,,,,,,,,70.1059,110.656,109.0824
1396,[98],C25,49.1225,23.205,1.34,12.1375,9.025,0.6325,2.065,0.875,0.8425,0.0,0.0,0.0,0.0,,300.0,100.0,,,,1246.0,671.0,1917.0,,,93.0,15.36%,30.71%,54%,47.0,10.0,0.35,0.505376,2.0,4.8,0.2,0.0,0.01,4.0,80.7549,25.0,20.0,33.4837,48.6402,17.2483,,33.4837,41.4767,,48.6402,,,,,,,,,,,,,,,,,,,67.0921,71.3115,92.6036
1593,[99],FA-60 GGBS- 40 B-360 AGG/B-4.84 ALK/B-0.55 T C - 60,49.69,23.918,2.87,15.44,3.906,0.132,0.0,0.57,0.0,0.0,0.0,0.0,3.438,,216.0,144.0,,,,973.0,770.0,1743.0,2.8,2.65,113.143,11.50%,30.00%,59%,84.8571,8.0,0.55,0.75,2.6,4.8,0.4,0.0,0.04,14.4,132.531,60.0,30.0,46.01,51.53,32.16,38.89,46.01,,,51.53,,,,,,,,,,,,,,,,,,,,,158.981
1599,[100],G90R10,41.1125,11.9846,1.82746,32.2155,8.83053,0.454264,0.530406,0.201091,0.0,0.0,0.0,0.0,2.84363,,,355.0,,,39.0,1201.0,647.0,1848.0,2.72,2.56,56.0645,15.60%,30.40%,54.00%,101.935,10.0,0.401015,1.81818,1.9,4.7,0.5,59.0,0.0203046,8.0,202.106,80.0,24.0,47.41104,51.04296,,,,,,,,,,,,,57.3006,,,59.2638,,,,63.8037,,67.1166,,,,,175.928
1603,[100],G70R30,51.8738,9.50228,1.53873,25.1978,6.94777,0.402132,0.450203,0.183046,0.0,0.0,0.0,0.0,3.90431,,,276.0,,,118.0,1201.0,647.0,1848.0,2.72,2.56,56.0645,15.60%,30.40%,54.00%,101.935,10.0,0.401015,1.81818,1.9,4.7,0.5,59.0,0.0203046,8.0,202.106,80.0,24.0,39.8528,40.93248,,,,,,,,,,,,,48.4663,,,49.816,,,,51.1656,,53.1288,,,,,171.82
1607,[101],G4,43.59,19.185,1.8775,28.005,5.28,0.2325,0.8325,0.085,0.0325,0.1675,0.0,0.0,0.23,,120.0,360.0,,,,547.7,803.1,1350.8,2.67,2.61,186.7,14.70%,29.40%,55.90%,53.4,2.0,0.500208,0.28602,2.0,2.8,0.6,146.6,0.0,0.0,300.0933,24.0,24.0,9.03953,9.53802,,,9.03953,,,9.53802,9.9951,11.031,,,,,,,,,,,,,,,,,,678.426,101.077
1611,[101],G8,43.59,19.185,1.8775,28.005,5.28,0.2325,0.8325,0.085,0.0325,0.1675,0.0,0.0,0.23,,120.0,360.0,,,,544.6,798.6,1343.2,2.67,2.61,171.4,14.70%,29.40%,55.90%,68.6,4.0,0.5,0.400233,2.0,2.8,0.6,145.4,0.0,0.0,298.8366,24.0,24.0,22.4234,26.4399,,,22.4234,,,26.4399,26.8994,27.8234,,,,,,,,,,,,,,,,,,644.88,108.3704
1615,[101],G12,43.59,19.185,1.8775,28.005,5.28,0.2325,0.8325,0.085,0.0325,0.1675,0.0,0.0,0.23,,120.0,360.0,,,,542.0,794.7,1336.7,2.67,2.61,196.4,14.70%,29.40%,55.90%,43.6,4.0,0.5,0.221996,2.0,2.8,0.6,156.5,0.0,0.0,302.9116,24.0,24.0,12.4445,12.9032,,,12.4445,,,12.9032,13.8277,16.2977,,,,,,,,,,,,,,,,,,682.027,109.6792
1619,[101],G16,43.59,19.185,1.8775,28.005,5.28,0.2325,0.8325,0.085,0.0325,0.1675,0.0,0.0,0.23,,120.0,360.0,,,,538.9,790.3,1329.2,2.67,2.61,186.7,14.70%,29.40%,55.90%,53.4,6.0,0.500208,0.28602,2.0,2.8,0.6,157.1,0.0,0.0,302.0493,24.0,24.0,28.5989,33.5856,,,28.5989,,,33.5856,35.565,36.0389,,,,,,,,,,,,,,,,,,656.578,117.3348
1623,[101],G20,43.59,19.185,1.8775,28.005,5.28,0.2325,0.8325,0.085,0.0325,0.1675,0.0,0.0,0.23,,120.0,360.0,,,,534.8,784.2,1319.0,2.67,2.61,171.4,14.70%,29.40%,55.90%,68.6,8.0,0.5,0.400233,2.0,2.7,0.6,157.3,0.0,0.0,299.7606,24.0,24.0,42.7086,47.3402,,,42.7086,,,47.3402,48.8926,49.2176,,,,,,,,,,,,,,,,,,616.925,129.273
1627,[101],G24,43.59,19.185,1.8775,28.005,5.28,0.2325,0.8325,0.085,0.0325,0.1675,0.0,0.0,0.23,,120.0,360.0,,,,535.7,785.6,1321.3,2.67,2.61,196.4,14.70%,29.40%,55.90%,43.6,8.0,0.5,0.221996,2.0,2.8,0.6,164.1,0.0,0.0,303.5356,24.0,24.0,34.7065,39.1869,,,34.7065,,,39.1869,43.8168,44.2929,,,,,,,,,,,,,,,,,,668.25,122.964
1631,[101],G28,43.59,19.185,1.8775,28.005,5.28,0.2325,0.8325,0.085,0.0325,0.1675,0.0,0.0,0.23,,120.0,360.0,,,,532.2,780.4,1312.6,2.67,2.61,186.7,14.70%,29.40%,55.90%,53.4,10.0,0.500208,0.28602,2.0,2.7,0.6,165.2,0.0,0.0,301.6053,24.0,24.0,47.027,52.4324,,,47.027,,,52.4324,52.973,52.973,,,,,,,,,,,,,,,,,,642.749,133.617
1635,[101],G32,43.59,19.185,1.8775,28.005,5.28,0.2325,0.8325,0.085,0.0325,0.1675,0.0,0.0,0.23,,120.0,360.0,,,,527.1,772.9,1300.0,2.67,2.61,171.4,14.70%,29.40%,55.90%,68.6,12.0,0.5,0.400233,2.0,2.7,0.6,166.6,0.0,0.0,298.0846,24.0,24.0,55.903,57.9035,,,55.903,,,57.9035,60.6322,61.0026,,,,,,,,,,,,,,,,,,580.881,150.201
1639,[101],G36,43.59,19.185,1.8775,28.005,5.28,0.2325,0.8325,0.085,0.0325,0.1675,0.0,0.0,0.23,,120.0,360.0,,,,530.8,778.4,1309.2,2.67,2.61,196.4,14.70%,29.40%,55.90%,43.7,12.0,0.500208,0.222505,2.0,2.7,0.6,170.0,0.0,0.0,302.5116,24.0,24.0,43.0876,49.2549,,,43.0876,,,49.2549,53.6076,56.1507,,,,,,,,,,,,,,,,,,616.021,136.3572
1643,[102],GPC 4 -12M,50.608,10.912,5.846,22.18,4.518,0.51,0.0,1.182,0.0,0.0,0.0,0.0,0.422,,,156.0,,,234.0,1032.0,675.0,1707.0,2.64,2.6,150.0,14.70%,29.40%,55.90%,60.0,12.0,0.538462,0.4,2.0,4.4,0.3,0.0,0.0,0.0,115.05,24.0,23.0,17.74,28.77,,,17.74,,,28.77,,,,,,,,,,,,,,,,,,,,,125.4576
1647,[102],GPC 2 -14M,40.716,13.044,2.562,31.74,7.806,0.37,0.0,1.114,0.0,0.0,0.0,0.0,0.354,,,312.0,,,78.0,1032.0,675.0,1707.0,2.64,2.6,150.0,14.70%,29.40%,55.90%,60.0,14.0,0.538462,0.4,2.0,4.4,0.3,0.0,0.0,0.0,110.25,24.0,23.0,28.79,42.81,,,28.79,,,42.81,,,,,,,,,,,,,,,,,,,,,142.7616
1651,[102],GPC 6 -14M,60.5,8.78,9.13,12.62,1.23,0.65,0.0,1.25,0.0,0.0,0.0,0.0,0.49,,,,,,390.0,1032.0,675.0,1707.0,2.64,2.6,150.0,14.70%,29.40%,55.90%,60.0,14.0,0.538462,0.4,2.0,4.4,0.3,0.0,0.0,0.0,110.25,24.0,23.0,14.03,23.68,,,14.03,,,23.68,,,,,,,,,,,,,,,,,,,,,126.5376
1655,[102],GPC 4 -16M,50.608,10.912,5.846,22.18,4.518,0.51,0.0,1.182,0.0,0.0,0.0,0.0,0.422,,,156.0,,,234.0,1032.0,675.0,1707.0,2.64,2.6,150.0,14.70%,29.40%,55.90%,60.0,16.0,0.538462,0.4,2.0,4.4,0.3,0.0,0.0,0.0,105.45,24.0,23.0,18.13,29.21,,,18.13,,,29.21,,,,,,,,,,,,,,,,,,,,,143.8416
1719,[106],,50.76,27.32,4.64,5.4,3.72,0.8,4.85,2.0,1.16,0.0,0.0,0.0,0.0,,280.0,,,,,1309.0,561.0,1870.0,,,126.0,8.83%,27.64%,64%,84.0,12.0,0.75,0.666667,3.1,6.7,0.4,0.0,0.0,0.0,123.7278,25.0,24.0,2.9,24.4,,0.0,2.9,8.2,,24.4,32.4,,,,,,,,,,,,,,,,,,,,132.6688
1723,[106],,50.76,27.32,4.64,5.4,3.72,0.8,4.85,2.0,1.16,0.0,0.0,0.0,0.0,,280.0,,,,,1309.0,561.0,1870.0,,,126.0,8.83%,27.64%,64%,84.0,12.0,0.75,0.666667,3.1,6.7,0.4,0.0,0.0,0.0,123.7278,80.0,24.0,44.1,49.1,,41.1,44.1,46.0,,49.1,52.8,,,,,,,,,,,,,,,,,,,,167.96
1727,[106],,49.2274,26.1356,4.543646,8.32401,3.697104,0.77615,4.641551,2.1431,1.144736,0.0,0.0,0.0,0.0,14.0,280.0,,,,,1309.0,561.0,1870.0,,,126.0,8.83%,27.64%,64%,84.0,12.0,0.714286,0.666667,3.1,6.4,0.4,0.0,0.0,0.0,123.7278,80.0,24.0,47.5,51.9,,43.6,47.5,49.9,,51.9,53.1,,,,,,,,,,,,,,,,,,,,179.72
1729,[106],,49.2274,26.1356,4.543646,8.32401,3.697104,0.77615,4.641551,2.1431,1.144736,0.0,0.0,0.0,0.0,14.0,280.0,,,,,1309.0,561.0,1870.0,,,126.0,8.83%,27.64%,64%,84.0,12.0,0.714286,0.666667,3.1,6.4,0.4,0.0,0.0,0.0,123.7278,80.0,24.0,49.8,52.6,,45.1,49.8,51.9,,52.6,54.9,,,,,,,,,,,,,,,,,,,,179.72